Time              Gyro_X     Gyro_Y     Gyro_Z    Accel_X    Accel_Y    Accel_Z
372657.002700    0.01684    0.06675    0.22254   -0.16880   -0.02339    9.82029
372657.012700    0.11791    0.14307    0.50495   -0.16784   -0.01351    9.82555
372657.022700    0.01169   -0.05013    0.24007   -0.17322   -0.01721    9.81561
372657.032700    0.01937    0.14278    0.46518   -0.17194   -0.02204    9.82242
372657.042700    0.09534    0.12399    0.36371   -0.15946   -0.01904    9.82773
372657.052700   -0.07620    0.07265    0.29255   -0.16508   -0.00548    9.81871
372657.062700    0.02865    0.17968    0.30928   -0.16583   -0.02101    9.80921
372657.072700    0.16484    0.17395    0.36549   -0.16496   -0.02175    9.83382
372657.082700    0.18077    0.12261    0.16410   -0.17276   -0.00339    9.80943
372657.092700    0.11161    0.00372    0.36692   -0.16466   -0.02007    9.82239
372657.102700    0.00613    0.09677    0.30877   -0.17027   -0.00782    9.82729
372657.112700    0.16902    0.14553    0.23955   -0.16766   -0.00575    9.81515
372657.122700    0.15676    0.13923    0.26746   -0.17397   -0.02560    9.82245
372657.132700   -0.09540    0.22781    0.26660   -0.16901   -0.01102    9.82625
372657.142700    0.21606   -0.01982    0.19165   -0.17230   -0.01191    9.81699
372657.152700    0.04887    0.17916    0.19962   -0.16863   -0.01162    9.81841
372657.162700    0.00086    0.25709    0.21457   -0.16513   -0.01303    9.82127
372657.172700    0.16593    0.10766    0.24591   -0.17438   -0.00575    9.81052
372657.182700    0.07265    0.02704    0.26241   -0.17466   -0.01538    9.82843
372657.192700    0.12519    0.08182    0.33948   -0.17124   -0.01767    9.83094
372657.202700    0.03140    0.27714    0.36652   -0.17463   -0.01001    9.80699
372657.212700    0.01839    0.13212    0.33214   -0.15635   -0.02596    9.82742
372657.222700    0.15178    0.12256    0.35031   -0.16965    0.00336    9.82542
372657.232700   -0.00178    0.05873    0.28012   -0.17225   -0.01380    9.81629
372657.242700    0.13379    0.11012    0.27118   -0.17187   -0.02354    9.83634
372657.252700    0.04738    0.21560    0.13465   -0.16611   -0.01705    9.82522
372657.262700    0.03214    0.16868    0.29060   -0.18131   -0.02211    9.82029
372657.272700   -0.04389    0.08136    0.35105   -0.16467   -0.01574    9.83269
372657.282700    0.06411    0.11287    0.35025   -0.17131   -0.01881    9.81954
372657.292700    0.00877    0.08434    0.31707   -0.17060   -0.01406    9.82271
372657.302700   -0.10313    0.09282    0.26900   -0.16423   -0.01850    9.83450
372657.312700    0.12536    0.13270    0.24666   -0.17304   -0.00881    9.82125
372657.322700    0.04704    0.11436    0.02722   -0.16884   -0.02196    9.81529
372657.332700   -0.07311    0.10714    0.21308   -0.17326   -0.02138    9.83062
372657.342700    0.06119    0.05088    0.35758   -0.16404   -0.00504    9.82013
372657.352700   -0.04481   -0.05529    0.20758   -0.17212   -0.02193    9.82598
372657.362700    0.13041    0.15120    0.23955   -0.16058   -0.01729    9.82272
372657.372700    0.23783    0.03604    0.48845   -0.17895   -0.00014    9.82083
372657.382700    0.06589    0.09150    0.23417   -0.16677   -0.02164    9.81599
372657.392700    0.10623    0.08222    0.28476   -0.16846   -0.01768    9.82773
372657.402700    0.07139   -0.06440    0.17097   -0.16529   -0.01574    9.81879
372657.412700   -0.14765   -0.00040    0.37804   -0.16733   -0.02184    9.82027
372657.422700    0.02063    0.10949    0.16576   -0.16392   -0.01388    9.83839
372657.432700    0.09786    0.13619    0.29610   -0.17102   -0.01057    9.81020
372657.442700    0.10078    0.13321    0.38978   -0.16461   -0.02775    9.83102
372657.452700    0.19114    0.20712    0.03799   -0.16483   -0.00656    9.83013
372657.462700    0.17000    0.08216    0.31902   -0.16164   -0.01839    9.81560
372657.472700    0.09672    0.04320    0.23451   -0.16942   -0.03023    9.82070
372657.482700    0.25107    0.13734    0.12554   -0.17493   -0.02348    9.82850
372657.492700    0.22042    0.00384    0.24758   -0.17326   -0.01390    9.81950
372657.502700    0.15218    0.17217    0.38348   -0.16165   -0.01563    9.82770
372657.512700   -0.04996    0.14055    0.21761   -0.17262   -0.01441    9.83413
372657.522700    0.21194    0.18604    0.34125   -0.16958   -0.01795    9.82239
372657.532700    0.19538    0.04916    0.36068   -0.16449   -0.02757    9.82495
372657.542700    0.01833    0.25726    0.15607   -0.17206   -0.01314    9.81807
372657.552700   -0.00802    0.00785    0.41413   -0.17085   -0.01750    9.81489
372657.562700    0.23640    0.11402    0.21360   -0.17529   -0.02551    9.83066
372657.572700    0.02739    0.01215    0.31707   -0.17774   -0.01660    9.82025
372657.582700   -0.00773    0.01879    0.29897   -0.18120   -0.01700    9.81669
372657.592700    0.05644   -0.00963    0.39018   -0.16106   -0.02599    9.83171
372657.602700    0.18988    0.17876    0.16031   -0.17005   -0.00605    9.81872
372657.612700    0.19097    0.18804    0.19343   -0.18169   -0.01306    9.80668
372657.622700   -0.01094   -0.11534    0.27158   -0.16275   -0.01916    9.82809
372657.632700   -0.01931    0.00418    0.27032   -0.16679   -0.00681    9.82015
372657.642700    0.06772    0.17762    0.25806   -0.17571   -0.01646    9.81918
372657.652700    0.17699    0.08812    0.32894   -0.17124   -0.02598    9.82851
372657.662700    0.07185    0.20867    0.21847   -0.17930   -0.01551    9.81953
372657.672700    0.06704    0.11390    0.14324   -0.16884   -0.01922    9.81633
372657.682700    0.24557    0.18306    0.19097   -0.16677   -0.01586    9.82664
372657.692700    0.13688   -0.00682    0.11860   -0.16254   -0.00868    9.82658
372657.702700    0.00682    0.21973    0.07689   -0.17749   -0.02931    9.81714
372657.712700    0.15430    0.00493    0.28063   -0.17255   -0.01115    9.82982
372657.722700    0.17469    0.12909    0.28012   -0.16399   -0.02005    9.82560
372657.732700    0.14112    0.30201    0.35575   -0.17170   -0.02026    9.81635
372657.742700    0.04217    0.03260    0.26849   -0.17464   -0.01638    9.82452
372657.752700    0.12003    0.06062    0.31547   -0.16367   -0.00864    9.82587
372657.762700    0.09225    0.06778    0.34601   -0.17574   -0.01401    9.81916
372657.772700   -0.01123   -0.04349    0.07620   -0.16419   -0.00914    9.82587
372657.782700    0.14232    0.08801    0.35936   -0.17021   -0.02148    9.82241
372657.792700    0.19498   -0.05059    0.26734   -0.17480   -0.02393    9.82458
372657.802700    0.10147    0.07718    0.12542   -0.15384   -0.02388    9.83346
372657.812700    0.10823   -0.00670    0.35254   -0.17042   -0.01674    9.81846
372657.822700    0.01490    0.03352    0.43310   -0.16638   -0.01952    9.82275
372657.832700    0.10107    0.18100    0.34274   -0.16577   -0.02289    9.82349
372657.842700    0.03942    0.25835    0.28728   -0.17898   -0.01104    9.82520
372657.852700    0.03770    0.06068    0.32498   -0.17379   -0.02716    9.82069
372657.862700    0.09969    0.01965    0.27582   -0.16881   -0.00955    9.81946
372657.872700    0.07477    0.07638    0.17750   -0.16887   -0.02373    9.81423
372657.882700   -0.03506    0.17939    0.26236   -0.16405   -0.02091    9.82454
372657.892700    0.16003   -0.05306    0.21606   -0.17152   -0.01148    9.82947
372657.902700    0.04612    0.23537    0.06440   -0.16587   -0.01100    9.81305
372657.912700    0.01346    0.00189    0.44118   -0.17427   -0.01660    9.81846
372657.922700    0.09929    0.12078    0.19544   -0.15984   -0.01073    9.84085
372657.932700    0.03501   -0.09597    0.12416   -0.16451   -0.01508    9.81700
372657.942700    0.03335   -0.01404    0.13476   -0.16841   -0.01775    9.81988
372657.952700    0.13218    0.27244    0.24798   -0.16593   -0.00662    9.82799
372657.962700    0.12124    0.19406    0.24546   -0.16487   -0.01014    9.81518
372657.972700    0.15613    0.07546    0.48541   -0.16296   -0.02211    9.82419
372657.982700    0.02005    0.26064    0.37277   -0.16030   -0.01227    9.82910
372657.992700    0.19733   -0.09345    0.29633   -0.16892   -0.01599    9.82237
372658.002700    0.10674    0.06749    0.16415   -0.16530   -0.01772    9.83058
372658.012700    0.08136    0.10474    0.40130   -0.15745   -0.00903    9.83299
372658.022700    0.15848    0.11259    0.21709   -0.17260   -0.02770    9.81356
372658.032700    0.00945    0.12359    0.34738   -0.16536   -0.02048    9.83524
372658.042700    0.03335    0.11522    0.25290   -0.16060   -0.01457    9.82377
372658.052700    0.02796   -0.18380    0.18936   -0.17727   -0.01932    9.81278
372658.062700   -0.01478    0.26900    0.18931   -0.16748   -0.01912    9.83523
372658.072700    0.03014    0.07626    0.23491   -0.16769   -0.01534    9.82735
372658.082700    0.11946    0.00659    0.57622   -0.16635   -0.00809    9.81909
372658.092700    0.18117    0.08216    0.21366   -0.18151   -0.02389    9.82709
372658.102700    0.14479    0.07065    0.31713   -0.16885   -0.01282    9.82769
372658.112700    0.04933    0.11769    0.46874   -0.16163   -0.01429    9.82306
372658.122700    0.23359    0.14330    0.30453   -0.16714   -0.01523    9.83020
372658.132700    0.10388    0.20615    0.17968   -0.16411   -0.01426    9.82413
372658.142700    0.11081    0.10777    0.38342   -0.16713   -0.01810    9.82024
372658.152700    0.16742    0.15900    0.32945   -0.16639   -0.02215    9.83347
372658.162700    0.07506    0.17275    0.34280   -0.16870   -0.00436    9.81513
372658.172700    0.12811    0.18254    0.39133   -0.17101   -0.02397    9.81745
372658.182700    0.06096    0.00882    0.18426   -0.16831   -0.02701    9.83493
372658.192700   -0.02126   -0.03552    0.37575   -0.16885   -0.01233    9.81165
372658.202700   -0.04887    0.09792    0.18988   -0.16582   -0.01512    9.81701
372658.212700    0.27244    0.11041    0.30923   -0.17224   -0.01407    9.83377
372658.222700   -0.00160    0.14794    0.33535   -0.16383   -0.00509    9.81906
372658.232700    0.10067    0.18352    0.18615   -0.17059   -0.02705    9.82460
372658.242700   -0.03684    0.21721    0.15258   -0.16545   -0.01605    9.83627
372658.252700    0.05982    0.04945    0.20919   -0.15651   -0.01092    9.81090
372658.262700   -0.08228    0.02183    0.14691   -0.15735   -0.02510    9.81814
372658.272700    0.01954    0.24345    0.22185   -0.16685   -0.02163    9.82776
372658.282700    0.06068    0.09253    0.32498   -0.16093   -0.00572    9.81407
372658.292700    0.09563    0.04079    0.21732   -0.16827   -0.02938    9.82783
372658.302700    0.11940    0.06039    0.15882   -0.16186   -0.01666    9.83733
372658.312700    0.10262    0.02303    0.36583   -0.17401   -0.01156    9.81093
372658.322700    0.13436   -0.03518    0.37517   -0.17525   -0.01669    9.82488
372658.332700    0.11322    0.10743    0.33048   -0.15547   -0.00697    9.83225
372658.342700    0.15040    0.06010    0.32258   -0.16994   -0.01063    9.80664
372658.352700   -0.01937    0.11121    0.26448   -0.17168   -0.02100    9.81671
372658.362700    0.19985    0.09511    0.25697   -0.16735   -0.01999    9.83416
372658.372700    0.06463    0.15120    0.35712   -0.18136   -0.01095    9.81807
372658.382700    0.10353    0.11946    0.39609   -0.16711   -0.01257    9.82661
372658.392700    0.01616    0.12892    0.19154   -0.16871   -0.02811    9.82960
372658.402700    0.18713   -0.06572    0.29628   -0.17879   -0.01229    9.81558
372658.412700    0.16134   -0.07746    0.30619   -0.15968   -0.02692    9.82066
372658.422700    0.05879    0.10399    0.31410   -0.16650   -0.00122    9.82474
372658.432700    0.01919    0.18060    0.21939   -0.17375   -0.01276    9.81807
372658.442700    0.19532    0.08193    0.17974   -0.16156   -0.02145    9.82026
372658.452700    0.12960    0.15636    0.21503   -0.16573   -0.01213    9.82768
372658.462700    0.07993    0.01346    0.30648   -0.17333   -0.00579    9.82086
372658.472700    0.03094   -0.03730    0.15544   -0.16452   -0.02639    9.82637
372658.482700    0.04841    0.14628    0.32046   -0.15900   -0.02082    9.83202
372658.492700   -0.00607   -0.02080    0.42330   -0.17287   -0.01478    9.81987
372658.502700    0.19263    0.22724    0.25898   -0.16774   -0.03420    9.82644
372658.512700    0.16415    0.08371    0.21549   -0.16983   -0.01352    9.82734
372658.522700    0.05964    0.16203    0.49297   -0.16894   -0.00294    9.81834
372658.532700    0.10869    0.01782    0.35386   -0.16084   -0.01495    9.83197
372658.542700    0.00911    0.11070    0.22706   -0.16358   -0.01738    9.83378
372658.552700    0.02126    0.00556    0.08824   -0.17189   -0.01419    9.81914
372658.562700    0.06738   -0.00665    0.20976   -0.16420   -0.02568    9.82244
372658.572700    0.17321    0.18627    0.28648   -0.16552   -0.00254    9.82617
372658.582700    0.10222    0.10170    0.23090   -0.17186   -0.02062    9.81564
372658.592700    0.04223    0.11018    0.24884   -0.16642   -0.01643    9.82201
372658.602700    0.14845    0.16925    0.63827   -0.16728   -0.01253    9.82484
372658.612700    0.04486   -0.05208    0.30682   -0.17563   -0.01656    9.81668
372658.622700    0.01730    0.05019    0.34698   -0.16666   -0.02129    9.82669
372658.632700   -0.05409    0.28545    0.22448   -0.16761   -0.01860    9.82310
372658.642700    0.15854    0.05334    0.31662   -0.16129   -0.01781    9.80348
372658.652700    0.09643    0.10966    0.38125   -0.17842   -0.02328    9.82673
372658.662700    0.15825   -0.05065    0.21818   -0.16856   -0.01830    9.83736
372658.672700    0.14897    0.07053    0.20506   -0.16880   -0.01249    9.82341
372658.682700    0.05157    0.09173    0.29295   -0.17262   -0.01611    9.82309
372658.692700    0.15103    0.05111    0.25915   -0.16778   -0.00660    9.82764
372658.702700    0.15309    0.22168    0.22597   -0.17032   -0.01084    9.82269
372658.712700    0.19698    0.21217    0.22626   -0.16539   -0.02308    9.83562
372658.722700    0.14404    0.29748    0.14845   -0.16894   -0.01294    9.82734
372658.732700    0.00384    0.12072    0.26029   -0.16370   -0.01645    9.81310
372658.742700   -0.05529    0.09712    0.44204   -0.17982   -0.02168    9.82564
372658.752700   -0.02028    0.00086    0.24546   -0.16562   -0.01651    9.82665
372658.762700    0.00040    0.03134    0.33707   -0.17473   -0.00789    9.81233
372658.772700    0.22042    0.10279    0.24838   -0.17090   -0.02179    9.82313
372658.782700    0.13224    0.19291    0.10560   -0.16028   -0.01561    9.82235
372658.792700    0.19950    0.29450    0.16026   -0.17794   -0.02156    9.81957
372658.802700    0.10714    0.03019    0.14834   -0.16419   -0.01831    9.83236
372658.812700    0.04738    0.23067    0.25915   -0.16933   -0.01926    9.82133
372658.822700    0.09024    0.02091    0.42296   -0.15766   -0.01738    9.82664
372658.832700    0.24196   -0.01599    0.21469   -0.16169   -0.03066    9.82712
372658.842700    0.15659    0.03146    0.26201   -0.17021   -0.00745    9.82515
372658.852700   -0.09351    0.00854    0.56121   -0.16943   -0.01754    9.82131
372658.862700    0.10067    0.17229    0.19395   -0.17018   -0.02184    9.83383
372658.872700    0.25852    0.03042    0.53927   -0.16670   -0.01687    9.82986
372658.882700    0.05667    0.05248    0.34893   -0.16979   -0.02000    9.80957
372658.892700    0.12313   -0.00378    0.04612   -0.17352   -0.01559    9.83557
372658.902700    0.11551    0.06578    0.37781   -0.17320   -0.01739    9.82524
372658.912700    0.11316    0.03621    0.39408   -0.16501   -0.01569    9.81915
372658.922700    0.09608    0.07065    0.45688   -0.16669   -0.01978    9.82632
372658.932700    0.19927    0.04990    0.47521   -0.16424   -0.01277    9.81841
372658.942700    0.01398    0.24465    0.20054   -0.17472   -0.02091    9.82848
372658.952700    0.26975    0.04240    0.15705   -0.17147   -0.02103    9.82633
372658.962700    0.03501   -0.03908    0.38881   -0.16914   -0.01301    9.82270
372658.972700    0.30527    0.21503    0.25245   -0.18521   -0.01805    9.81849
372658.982700    0.03890    0.16805    0.16679   -0.16947   -0.02598    9.82780
372658.992700   -0.06543    0.17647    0.23577   -0.17447   -0.02310    9.82386
372659.002700    0.13109    0.11728    0.09780   -0.16376   -0.00526    9.81336
372659.012700    0.25273    0.10239    0.29954   -0.17075   -0.02484    9.83136
372659.022700    0.15418    0.20821    0.25669   -0.15930   -0.01176    9.82695
372659.032700    0.13837    0.24288    0.48237   -0.17146   -0.01774    9.82131
372659.042700   -0.02853   -0.02097    0.06658   -0.16726   -0.02646    9.83101
372659.052700    0.23262    0.13613    0.26173   -0.15476   -0.00502    9.83688
372659.062700   -0.04652    0.08915    0.45544   -0.17241   -0.01207    9.81414
372659.072700    0.09672   -0.03083    0.33042   -0.16936   -0.02268    9.82243
372659.082700    0.00372    0.18570    0.44811   -0.17443   -0.00708    9.83371
372659.092700    0.14565    0.20380    0.11367   -0.17032   -0.01566    9.81417
372659.102700    0.12330   -0.10691    0.33713   -0.16339   -0.02353    9.82848
372659.112700    0.01851    0.07615    0.29822   -0.16905   -0.01992    9.83202
372659.122700   -0.00069    0.07322    0.43155   -0.17641   -0.01589    9.81739
372659.132700    0.01530    0.14622    0.27118   -0.16780   -0.01820    9.81846
372659.142700    0.11373    0.06555    0.35082   -0.16217   -0.01638    9.83235
372659.152700    0.00275    0.04624    0.29037   -0.17127   -0.01898    9.81312
372659.162700   -0.05357    0.21251    0.50271   -0.16750   -0.01892    9.81989
372659.172700    0.23560    0.09620    0.17710   -0.16742   -0.01583    9.82879
372659.182700    0.15854    0.04183    0.33105   -0.17028   -0.00774    9.81766
372659.192700   -0.04544    0.14599    0.34647   -0.16614   -0.01749    9.82630
372659.202700    0.04320   -0.03226    0.17298   -0.16423   -0.00877    9.83870
372659.212700    0.17664    0.21961    0.29891   -0.17110   -0.01465    9.80846
372659.222700    0.10600   -0.11396    0.25330   -0.16305   -0.01981    9.82453
372659.232700    0.06715    0.14565    0.26219   -0.15268   -0.01419    9.82197
372659.242700    0.01140   -0.05380    0.20884   -0.17711   -0.01002    9.80557
372659.252700    0.31490   -0.04068    0.00716   -0.15802   -0.01852    9.83022
372659.262700    0.08102    0.08474    0.28677   -0.18332   -0.00821    9.82589
372659.272700    0.09878    0.06320    0.11694   -0.16748   -0.02198    9.81136
372659.282700    0.18489    0.23394    0.15321   -0.17062   -0.02382    9.82458
372659.292700    0.11769   -0.06509    0.41333   -0.17497   -0.00432    9.82976
372659.302700    0.16816    0.09757    0.36417   -0.17229   -0.01333    9.81237
372659.312700    0.11854    0.18644    0.26946   -0.16945   -0.02978    9.83532
372659.322700    0.02693    0.06217    0.33449   -0.16740   -0.01295    9.82984
372659.332700    0.01793    0.04727    0.27502   -0.17328   -0.01828    9.81241
372659.342700    0.11912   -0.00378    0.18186   -0.16250   -0.01835    9.83307
372659.352700    0.00321    0.02538    0.40462   -0.16640   -0.01138    9.82126
372659.362700    0.07930    0.18719    0.27353   -0.16888   -0.01022    9.81911
372659.372700    0.11287    0.31759    0.24809   -0.16286   -0.01847    9.82772
372659.382700    0.13825    0.14015    0.44954   -0.17543   -0.01361    9.82165
372659.392700    0.12972   -0.04990    0.24230   -0.17008   -0.01613    9.81488
372659.402700    0.07643    0.12617    0.32997   -0.16878   -0.02425    9.82636
372659.412700    0.12296   -0.02962    0.48873   -0.15432   -0.00489    9.82760
372659.422700    0.01478    0.00229    0.27697   -0.16812   -0.01196    9.82554
372659.432700    0.20128    0.04807    0.29788   -0.16808   -0.01685    9.84234
372659.442700    0.11671    0.15710    0.46553   -0.17100   -0.00842    9.82587
372659.452700    0.15464    0.09024    0.33908   -0.17252   -0.02608    9.81782
372659.462700    0.17246   -0.03415    0.26665   -0.16929   -0.02616    9.82887
372659.472700    0.06131    0.20432    0.31495   -0.16562   -0.01062    9.81162
372659.482700    0.02475    0.19005    0.25915   -0.16788   -0.01925    9.81811
372659.492700    0.14232    0.10210    0.12932   -0.16807   -0.01794    9.83700
372659.502700   -0.01226    0.00905    0.24013   -0.16538   -0.00264    9.82546
372659.512700   -0.10021    0.17275    0.08268   -0.16234   -0.01856    9.82451
372659.522700    0.10090    0.00441    0.35919   -0.16874   -0.01497    9.82486
372659.532700    0.29456   -0.02303    0.18020   -0.16734   -0.01205    9.82911
372659.542700    0.07214    0.10456    0.36125   -0.17508   -0.02512    9.81212
372659.552700   -0.00928   -0.01461    0.24924   -0.16342   -0.03016    9.82354
372659.562700    0.02235    0.23801    0.19864   -0.17459   -0.00303    9.82583
372659.572700   -0.00034    0.09843    0.34137   -0.15431   -0.01567    9.82519
372659.582700    0.11579    0.06784    0.17802   -0.15817   -0.01692    9.82985
372659.592700   -0.02790    0.05982    0.25863   -0.17158   -0.01618    9.82380
372659.602700    0.23703    0.03953    0.22414   -0.16913   -0.01590    9.82236
372659.612700    0.04618    0.00802    0.35432   -0.16326   -0.02147    9.83203
372659.622700    0.14685   -0.00395    0.16495   -0.16424   -0.01140    9.82838
372659.632700    0.03598    0.16931    0.41843   -0.16689   -0.00744    9.82336
372659.642700   -0.02223   -0.01020    0.40554   -0.16272   -0.02090    9.82882
372659.652700    0.06515   -0.01014    0.29880   -0.16743   -0.00949    9.82766
372659.662700    0.14410    0.15791    0.30539   -0.16887   -0.01846    9.80706
372659.672700    0.03094   -0.00390    0.33638   -0.17144   -0.01815    9.82417
372659.682700    0.14141    0.18260    0.12084   -0.16653   -0.00529    9.82442
372659.692700    0.13585    0.05775    0.26431   -0.16537   -0.01086    9.81697
372659.702700    0.13963    0.13241    0.27955   -0.16948   -0.02214    9.83383
372659.712700    0.04836    0.07191    0.35592   -0.17539   -0.00792    9.82552
372659.722700    0.10680   -0.07970    0.31713   -0.17227   -0.01682    9.81382
372659.732700   -0.08818    0.13654    0.09821   -0.16540   -0.01783    9.84020
372659.742700    0.14158   -0.06612    0.29908   -0.16670   -0.00113    9.82902
372659.752700   -0.11121    0.21182    0.37025   -0.16652   -0.02243    9.81778
372659.762700    0.22088    0.01742    0.45098   -0.15661   -0.02097    9.82988
372659.772700    0.00745    0.17641    0.45625   -0.16717   -0.01399    9.82378
372659.782700    0.08159    0.05031    0.31112   -0.17463   -0.02099    9.81850
372659.792700   -0.02693   -0.17441    0.15178   -0.17083   -0.03361    9.83535
372659.802700    0.19257    0.09356    0.16811   -0.15609   -0.00376    9.82724
372659.812700    0.20191    0.11751    0.37047   -0.17055   -0.02535    9.81532
372659.822700    0.04492    0.09414    0.45567   -0.16526   -0.01843    9.83593
372659.832700    0.19228    0.07489    0.32372   -0.16750   -0.01179    9.81413
372659.842700    0.06910    0.11282    0.25245   -0.17227   -0.01436    9.82272
372659.852700    0.03392    0.12548    0.16954   -0.16436   -0.01816    9.83592
372659.862700   -0.01146    0.08898    0.12983   -0.16054   -0.01101    9.82267
372659.872700   -0.01919    0.16851    0.19251   -0.16787   -0.01544    9.82129
372659.882700    0.24735    0.01014    0.26138   -0.16411   -0.03134    9.83105
372659.892700    0.11562    0.21125    0.25835   -0.16727   -0.00535    9.81800
372659.902700    0.15751    0.03312    0.17372   -0.18018   -0.01884    9.82312
372659.912700    0.04933    0.17641    0.39792   -0.15679   -0.01794    9.83484
372659.922700    0.03151    0.02126    0.21217   -0.18164   -0.00386    9.81444
372659.932700    0.02716    0.05225    0.38657   -0.17231   -0.01607    9.82095
372659.942700    0.17469    0.05798    0.38955   -0.16666   -0.02112    9.83275
372659.952700    0.01329    0.21606    0.44238   -0.17357   -0.00063    9.81904
372659.962700    0.11585    0.03936    0.10709   -0.17450   -0.02193    9.82849
372659.972700    0.09735    0.08468    0.33541   -0.16182   -0.01733    9.83128
372659.982700    0.21113   -0.03180    0.05157   -0.17664   -0.01291    9.81737
372659.992700    0.01788    0.08044    0.30458   -0.15671   -0.02712    9.82101
372660.002700    0.00275    0.08967    0.39798   -0.15904   -0.02776    9.82637
372660.012700    0.05426    0.02160    0.35615   -0.18093   -0.00617    9.81767
372660.022700    0.11247    0.00940    0.33295   -0.17014   -0.02192    9.82099
372660.032700    0.38423    0.05105    0.14272   -0.17009   -0.01948    9.83167
372660.042700    0.12193    0.09947    0.21939   -0.17432   -0.02098    9.81457
372660.052700    0.06469    0.13728    0.29920   -0.16053   -0.03156    9.81357
372660.062700    0.15080   -0.14960    0.17808   -0.15892   -0.01490    9.82769
372660.072700    0.12072    0.28298    0.34887   -0.17491   -0.01396    9.81381
372660.082700    0.03930    0.03581    0.49377   -0.17700   -0.01888    9.82312
372660.092700    0.04687    0.07660    0.20575   -0.16879   -0.01537    9.83092
372660.102700    0.06704   -0.11585    0.35225   -0.18013   -0.01410    9.81060
372660.112700    0.17498    0.15911    0.16518   -0.16651   -0.01728    9.81739
372660.122700    0.00573    0.06755    0.12657   -0.16228   -0.02020    9.83023
372660.132700   -0.00481   -0.04377    0.17447   -0.16871   -0.00993    9.81590
372660.142700    0.12834    0.29095    0.19068   -0.16598   -0.01910    9.81240
372660.152700    0.09333    0.02584    0.26889   -0.17458   -0.01564    9.83057
372660.162700   -0.00149    0.02624    0.29020   -0.16843   -0.01894    9.81669
372660.172700    0.00189    0.07426    0.36125   -0.16294   -0.02510    9.81387
372660.182700    0.29209   -0.01112    0.24798   -0.16941   -0.01686    9.82630
372660.192700    0.09929    0.01931    0.47676   -0.17020   -0.01434    9.81273
372660.202700    0.07609    0.05197    0.28510   -0.15244   -0.03220    9.81748
372660.212700    0.11763    0.02280    0.32040   -0.16632   -0.01109    9.83587
372660.222700    0.04125    0.03822    0.27937   -0.18095   -0.00658    9.81090
372660.232700    0.13069    0.02659    0.19257   -0.16967   -0.02526    9.83029
372660.242700    0.17848    0.17086    0.18495   -0.16760   -0.00560    9.82763
372660.252700   -0.00940    0.09872    0.26396   -0.18028   -0.01936    9.81742
372660.262700    0.08153    0.04927    0.28596   -0.16425   -0.02463    9.82243
372660.272700   -0.06698    0.16346    0.35443   -0.17510   -0.01248    9.81878
372660.282700    0.03128    0.19956    0.09276   -0.17371   -0.01996    9.82170
372660.292700    0.14158    0.18472    0.16673   -0.17168   -0.01353    9.82806
372660.302700   -0.03570    0.00338    0.14381   -0.15800   -0.01524    9.83339
372660.312700    0.09345    0.10657    0.22002   -0.17681   -0.01446    9.80953
372660.322700    0.00069    0.21016    0.39299   -0.17304   -0.01855    9.82026
372660.332700    0.11912    0.06732    0.07552   -0.16706   -0.01598    9.82629
372660.342700    0.03902   -0.02521    0.21595   -0.17695   -0.01608    9.81561
372660.352700    0.14507   -0.10210    0.44404   -0.16546   -0.02427    9.82814
372660.362700    0.20254    0.20604    0.29364   -0.16646   -0.02140    9.82455
372660.372700    0.01112    0.04664    0.10863   -0.16464   -0.01265    9.82127
372660.382700    0.14358    0.11029    0.32733   -0.16541   -0.01041    9.83087
372660.392700    0.16518    0.24958    0.42554   -0.16654   -0.01666    9.82451
372660.402700   -0.05609    0.16960    0.41912   -0.16901   -0.01583    9.81559
372660.412700    0.05208    0.14610    0.28631   -0.16925   -0.01272    9.82305
372660.422700    0.16690    0.06388    0.20965   -0.16411    0.00171    9.83576
372660.432700    0.15241   -0.02017    0.44651   -0.17243   -0.02943    9.82070
372660.442700    0.06068    0.17567    0.26024   -0.17119   -0.03851    9.82292
372660.452700    0.07947    0.05615    0.22930   -0.17222   -0.01538    9.82415
372660.462700    0.13012    0.03060    0.38428   -0.16639   -0.01750    9.81845
372660.472700    0.02429    0.19876    0.13138   -0.16848   -0.02741    9.82710
372660.482700   -0.15292    0.13052    0.24815   -0.15331   -0.01263    9.82588
372660.492700    0.05586    0.00246    0.29152   -0.17883   -0.01002    9.81235
372660.502700    0.13591    0.05575    0.23016   -0.17011   -0.02325    9.81850
372660.512700   -0.11940    0.06320    0.21348   -0.16992   -0.00761    9.82230
372660.522700    0.06452    0.00544    0.19337   -0.17056   -0.00713    9.82087
372660.532700    0.10336    0.20690    0.32011   -0.16439   -0.02288    9.83746
372660.542700    0.13545    0.11322    0.25852   -0.17240   -0.00199    9.82306
372660.552700   -0.01759    0.12473    0.30504   -0.16685   -0.01243    9.82064
372660.562700   -0.02137    0.22173    0.27662   -0.16442   -0.01379    9.82956
372660.572700    0.03558    0.08789    0.35191   -0.15863   -0.00988    9.82417
372660.582700    0.15075    0.00653    0.27250   -0.17049   -0.02784    9.81792
372660.592700    0.16960    0.06560    0.20844   -0.16251   -0.02850    9.82825
372660.602700    0.11322    0.07053    0.23726   -0.17013   -0.01544    9.82709
372660.612700    0.21532    0.00567    0.33025   -0.17295   -0.01615    9.81105
372660.622700    0.15011   -0.03100    0.30951   -0.16382   -0.01836    9.82603
372660.632700    0.17750    0.02687    0.33088   -0.17846   -0.00269    9.81487
372660.642700    0.01415    0.13407    0.17544   -0.17433   -0.02284    9.81610
372660.652700    0.11883    0.22867    0.19423   -0.17093   -0.01631    9.83743
372660.662700    0.17727   -0.09712    0.18936   -0.16974   -0.00681    9.81311
372660.672700    0.09998    0.03570    0.14278   -0.17436   -0.01374    9.82280
372660.682700    0.09150    0.33988    0.32773   -0.16587   -0.01673    9.83065
372660.692700    0.19051    0.08274    0.32716   -0.17099   -0.01851    9.81820
372660.702700    0.07082    0.08606    0.14708   -0.16670   -0.02988    9.82363
372660.712700   -0.01203    0.00052    0.26041   -0.16457   -0.01380    9.82599
372660.722700    0.03804    0.10720    0.30252   -0.16616   -0.00927    9.82097
372660.732700    0.15980    0.07947    0.27857   -0.16816   -0.02482    9.81433
372660.742700    0.15149    0.01146    0.20059   -0.15208   -0.03072    9.83467
372660.752700    0.16977    0.09637    0.39631   -0.18034   -0.01036    9.80959
372660.762700    0.14164    0.01633    0.26975   -0.16846   -0.02434    9.81753
372660.772700   -0.01203    0.12233    0.35013   -0.15740   -0.01576    9.83313
372660.782700    0.12439    0.13006    0.21984   -0.17121   -0.02161    9.82536
372660.792700    0.12617    0.11877    0.16329   -0.17238   -0.01628    9.81747
372660.802700    0.11780    0.08337    0.25600   -0.16053   -0.02560    9.83535
372660.812700    0.11803    0.14169    0.21257   -0.16797   -0.01586    9.80640
372660.822700    0.07408   -0.00516    0.38222   -0.17493   -0.00953    9.83026
372660.832700    0.14845   -0.03100    0.29874   -0.16318   -0.01941    9.82925
372660.842700    0.06240    0.11327    0.06870   -0.17093   -0.01651    9.82852
372660.852700    0.15046    0.01249    0.22936   -0.15523   -0.02459    9.82571
372660.862700    0.07214   -0.01215    0.25428   -0.15348   -0.01008    9.83486
372660.872700    0.08205    0.13906    0.44272   -0.16902   -0.00244    9.80950
372660.882700    0.15120    0.04079    0.29668   -0.17495   -0.02199    9.82857
372660.892700    0.12376    0.10302    0.23955   -0.16567   -0.01608    9.83029
372660.902700    0.24270   -0.15453    0.10863   -0.16940   -0.00085    9.81555
372660.912700    0.05632    0.06984    0.33335   -0.16784   -0.02096    9.81929
372660.922700    0.19154    0.02120    0.27433   -0.17533   -0.01403    9.82138
372660.932700    0.07970    0.06847    0.34767   -0.16587   -0.01307    9.81493
372660.942700    0.17355    0.28041    0.35157   -0.16551   -0.02298    9.81573
372660.952700    0.18449    0.15837    0.37895   -0.16986   -0.01638    9.82959
372660.962700    0.05781   -0.02871    0.23382   -0.16981   -0.01546    9.82602
372660.972700    0.09471    0.10554    0.36738   -0.17451   -0.01277    9.81922
372660.982700   -0.03919    0.15063    0.31306   -0.16780   -0.01649    9.83137
372660.992700   -0.01060    0.14272    0.28424   -0.16203   -0.01340    9.82777
372661.002700    0.05947    0.02882    0.36497   -0.16536   -0.02163    9.81857
372661.012700    0.04595    0.20048    0.24007   -0.15995   -0.02235    9.82641
372661.022700    0.17555    0.05787    0.38394   -0.16830   -0.00160    9.81485
372661.032700    0.05260    0.11259    0.42307   -0.16326   -0.02234    9.81964
372661.042700    0.21268    0.06079    0.25090   -0.17054   -0.01903    9.83389
372661.052700    0.07872    0.02601    0.19498   -0.16339   -0.01098    9.81991
372661.062700    0.09070   -0.00074    0.19853   -0.16114   -0.02679    9.82146
372661.072700    0.02699   -0.07185    0.29960   -0.16445   -0.01572    9.83528
372661.082700   -0.02590   -0.00659    0.14164   -0.16539   -0.01117    9.80672
372661.092700    0.12313    0.11098    0.33667   -0.16708   -0.01923    9.81891
372661.102700   -0.02710    0.09586    0.29513   -0.16320   -0.02774    9.84001
372661.112700    0.10651    0.12273    0.22872   -0.16868   -0.00783    9.82167
372661.122700   -0.02177   -0.14570    0.18650   -0.16968   -0.01864    9.83068
372661.132700    0.16616    0.19223    0.35288   -0.16447   -0.01583    9.83563
372661.142700    0.15607    0.13115    0.37013   -0.15824   -0.00984    9.81633
372661.152700    0.19945    0.00968    0.42107   -0.16118   -0.01838    9.82495
372661.162700    0.13848    0.02510    0.09081   -0.16258   -0.01426    9.83384
372661.172700    0.11029   -0.04710    0.39242   -0.16782   -0.01025    9.81884
372661.182700    0.01833    0.01467    0.32258   -0.17313   -0.02375    9.82574
372661.192700   -0.08640   -0.15281    0.43270   -0.15518   -0.01758    9.83456
372661.202700    0.08365    0.22294    0.04297   -0.17097   -0.01927    9.81892
372661.212700    0.02618    0.21669    0.27594   -0.17447   -0.02135    9.82750
372661.222700    0.09419    0.14410    0.36984   -0.16675   -0.01294    9.82207
372661.232700    0.21887    0.05048    0.45865   -0.16231   -0.00525    9.81843
372661.242700    0.11379    0.24803    0.29754   -0.17785   -0.02264    9.82466
372661.252700   -0.00630    0.19349    0.37047   -0.16050   -0.02474    9.82857
372661.262700    0.06285   -0.02744    0.40565   -0.17223   -0.00930    9.82026
372661.272700    0.18243    0.11665    0.45648   -0.16567   -0.02146    9.83426
372661.282700    0.21257   -0.06406    0.10840   -0.16657   -0.02109    9.83248
372661.292700    0.07351    0.11620    0.25915   -0.16722   -0.01062    9.82169
372661.302700    0.03449    0.05947    0.44307   -0.16801   -0.03028    9.82435
372661.312700    0.12960    0.13545    0.21262   -0.16402   -0.02334    9.82357
372661.322700    0.22420    0.22477    0.41207   -0.17179   -0.01261    9.81352
372661.332700   -0.04125    0.15080    0.19246   -0.16920   -0.02661    9.81826
372661.342700    0.03673    0.06532    0.34842   -0.16212   -0.01402    9.83348
372661.352700    0.12702    0.11803    0.15223   -0.16578   -0.01475    9.81709
372661.362700    0.12611    0.16644    0.30424   -0.17095   -0.01785    9.82746
372661.372700    0.09551   -0.02275    0.26797   -0.15554   -0.02800    9.83572
372661.382700    0.07958    0.10462    0.10932   -0.16813   -0.02583    9.81148
372661.392700   -0.07156    0.07878    0.35907   -0.17543   -0.02002    9.82748
372661.402700    0.13843    0.13098    0.21360   -0.16273   -0.01357    9.82777
372661.412700    0.00607    0.11007    0.37248   -0.16269   -0.00866    9.82096
372661.422700    0.17338    0.07993    0.33438   -0.16156   -0.02011    9.83067
372661.432700    0.13957    0.06961    0.30991   -0.16779   -0.01177    9.83026
372661.442700    0.24597    0.06515    0.31748   -0.17825   -0.00684    9.81420
372661.452700    0.16856    0.17045    0.43826   -0.16924   -0.01842    9.83103
372661.462700    0.13825    0.23365    0.37941   -0.17070   -0.01889    9.81785
372661.472700    0.21515    0.11453    0.33157   -0.16924   -0.01187    9.81529
372661.482700    0.04647    0.19859    0.38314   -0.17500   -0.02934    9.82044
372661.492700    0.24156    0.15894    0.35403   -0.16960   -0.00594    9.83022
372661.502700    0.03060    0.08640    0.42313   -0.17168   -0.02274    9.81360
372661.512700    0.06274    0.38211    0.37964   -0.16255   -0.01473    9.82849
372661.522700    0.20025    0.06973    0.37953   -0.14855   -0.00905    9.82771
372661.532700    0.09471    0.13264    0.21073   -0.16417   -0.00749    9.81275
372661.542700    0.19108    0.08125    0.24666   -0.16667   -0.03051    9.82185
372661.552700    0.09156    0.14502    0.36578   -0.16887   -0.01507    9.82209
372661.562700    0.15562   -0.03718    0.31003   -0.17529   -0.01312    9.81317
372661.572700    0.24248    0.14198    0.25548   -0.15775   -0.03035    9.83396
372661.582700    0.02573    0.04572    0.24551   -0.16605   -0.01721    9.82388
372661.592700   -0.03449    0.01243    0.32739   -0.18086   -0.01625    9.82533
372661.602700   -0.05604    0.13453    0.33959   -0.14458   -0.02294    9.83139
372661.612700    0.05294    0.02017    0.29513   -0.17222   -0.01920    9.83924
372661.622700    0.12496   -0.02068    0.24242   -0.16707   -0.01508    9.80675
372661.632700   -0.05707    0.03845    0.33793   -0.16845   -0.01893    9.82497
372661.642700    0.12823    0.08296    0.17068   -0.16882   -0.00784    9.82987
372661.652700   -0.02429    0.06646    0.31633   -0.16381   -0.00693    9.81310
372661.662700    0.11184    0.13900    0.26058   -0.17093   -0.01602    9.83458
372661.672700    0.22070    0.05707    0.49498   -0.17345   -0.00818    9.81134
372661.682700    0.05466    0.02939    0.19704   -0.17092   -0.02304    9.82144
372661.692700    0.01587   -0.00865    0.33031   -0.16880   -0.01683    9.82959
372661.702700   -0.08566    0.08371    0.44576   -0.17270   -0.00727    9.81490
372661.712700    0.04635    0.06956    0.29937   -0.16740   -0.01648    9.82103
372661.722700    0.09316    0.21795    0.53743   -0.15751   -0.01289    9.83738
372661.732700    0.01438    0.02727    0.19051   -0.17642   -0.01423    9.81424
372661.742700    0.13791    0.11780    0.25256   -0.17992   -0.01168    9.82315
372661.752700   -0.06979   -0.00527    0.42170   -0.17596   -0.01724    9.82711
372661.762700    0.10514   -0.00183    0.29347   -0.17019   -0.00309    9.81237
372661.772700    0.22821    0.05787    0.32773   -0.16469   -0.02911    9.82255
372661.782700    0.02257    0.19079    0.17103   -0.16279   -0.01307    9.82420
372661.792700    0.17126    0.08629    0.48925   -0.17951   -0.00852    9.81670
372661.802700    0.20959   -0.03358    0.40542   -0.15804   -0.02629    9.81753
372661.812700    0.06171    0.09219    0.14095   -0.17054   -0.01538    9.83207
372661.822700    0.11746    0.25405    0.37901   -0.17319   -0.01712    9.82104
372661.832700    0.08715   -0.00710    0.20976   -0.17012   -0.02380    9.82003
372661.842700    0.06440    0.05329    0.26883   -0.17504   -0.00890    9.83061
372661.852700   -0.00957    0.19630    0.22328   -0.17584   -0.01494    9.81496
372661.862700    0.10858    0.11786    0.31748   -0.15990   -0.02361    9.83427
372661.872700    0.11918    0.07345    0.37322   -0.16406   -0.01271    9.80887
372661.882700    0.24935   -0.00390    0.34698   -0.17332   -0.01239    9.80603
372661.892700    0.03730    0.12857    0.13018   -0.15599   -0.03257    9.83719
372661.902700   -0.02040    0.06973    0.12863   -0.16840   -0.02027    9.83211
372661.912700   -0.01335    0.13980    0.26763   -0.16959   -0.00900    9.82168
372661.922700    0.06641    0.32693    0.33272   -0.16075   -0.02328    9.83177
372661.932700    0.01392    0.07426    0.22363   -0.16613   -0.01041    9.81990
372661.942700    0.10445    0.12181    0.36767   -0.17100   -0.02406    9.81575
372661.952700    0.15126    0.19458    0.16169   -0.15923   -0.02009    9.83245
372661.962700   -0.03254    0.18736    0.25468   -0.15924   -0.01275    9.81671
372661.972700    0.06681   -0.01833    0.28614   -0.16091   -0.01201    9.82098
372661.982700    0.21669    0.23463    0.30911   -0.16542   -0.02278    9.83534
372661.992700    0.27112    0.20472    0.17979   -0.17291   -0.01301    9.81423
372662.002700    0.12920    0.04784    0.14588   -0.17015   -0.01593    9.82780
372662.012700    0.08973    0.10388    0.26001   -0.16296   -0.02301    9.82393
372662.022700    0.06188    0.00464    0.21595   -0.17540   -0.00616    9.82345
372662.032700    0.06366    0.11872    0.22454   -0.17102   -0.01615    9.81996
372662.042700    0.18976    0.02458    0.23961   -0.17082   -0.02018    9.82499
372662.052700    0.07534    0.07151    0.40560   -0.16338   -0.01067    9.81491
372662.062700    0.00842    0.12175    0.34595   -0.17030   -0.01938    9.81321
372662.072700    0.17206    0.03128    0.32326   -0.16392   -0.01941    9.82960
372662.082700    0.07580    0.08239    0.29668   -0.17473   -0.01143    9.81280
372662.092700   -0.06073    0.02888    0.26608   -0.16887   -0.01967    9.81892
372662.102700   -0.11614    0.06870    0.38451   -0.16978   -0.01422    9.83028
372662.112700    0.16581    0.20220    0.20105   -0.17039   -0.00954    9.81955
372662.122700    0.11007   -0.02653    0.35684   -0.16907   -0.01545    9.81746
372662.132700    0.07340   -0.05913    0.24689   -0.17421   -0.01656    9.82104
372662.142700    0.08067   -0.10434    0.17601   -0.16814   -0.00349    9.81522
372662.152700    0.09179    0.10170    0.33805   -0.17022   -0.01917    9.82605
372662.162700    0.07678    0.07775    0.28413   -0.17186   -0.02026    9.82855
372662.172700    0.05913    0.02086    0.24574   -0.16773   -0.01241    9.81600
372662.182700    0.09207    0.04618    0.25462   -0.16669   -0.02267    9.82571
372662.192700    0.18168    0.05053    0.36199   -0.16564   -0.01014    9.83452
372662.202700   -0.06801    0.05970    0.28923   -0.17239   -0.00148    9.81663
372662.212700    0.15401    0.13676    0.25273   -0.16332   -0.02403    9.81324
372662.222700    0.02235    0.11213    0.22448   -0.17058   -0.01310    9.82884
372662.232700   -0.00670    0.03564    0.39036   -0.16924   -0.01452    9.81959
372662.242700    0.06005    0.12319    0.24276   -0.16539   -0.01988    9.82605
372662.252700    0.21778    0.14616    0.38125   -0.16957   -0.00838    9.82952
372662.262700    0.17687    0.16461    0.20942   -0.18169   -0.01624    9.81748
372662.272700    0.00573   -0.00332    0.21772   -0.16181   -0.02302    9.82392
372662.282700    0.12748    0.06308    0.45894   -0.16184   -0.02149    9.83425
372662.292700    0.10371    0.02326    0.43470   -0.15983   -0.01578    9.81709
372662.302700    0.16375    0.02154    0.20363   -0.16772   -0.02089    9.82677
372662.312700    0.06308    0.03627    0.41671   -0.16951   -0.00888    9.82739
372662.322700    0.19521    0.03953    0.31702   -0.16570   -0.02050    9.81999
372662.332700   -0.05094    0.18249    0.38142   -0.15823   -0.02137    9.82747
372662.342700    0.11471    0.17905    0.15080   -0.16829   -0.00581    9.82700
372662.352700    0.26230    0.07666    0.41144   -0.18508   -0.01476    9.81783
372662.362700    0.03289    0.18174    0.26568   -0.16228   -0.03163    9.81972
372662.372700    0.05615    0.13539    0.18226   -0.16196   -0.01646    9.83386
372662.382700   -0.02429    0.19509    0.34630   -0.17100   -0.01189    9.81886
372662.392700    0.14307    0.36274    0.31100   -0.16589   -0.01703    9.83137
372662.402700    0.11173    0.24127    0.22151   -0.16542   -0.01530    9.83599
372662.412700    0.03260    0.17298    0.16306   -0.15963   -0.00988    9.81134
372662.422700    0.02733   -0.11820    0.20483   -0.16650   -0.03130    9.82828
372662.432700    0.14725    0.15699    0.21217   -0.17263   -0.00812    9.83166
372662.442700   -0.09293   -0.06967    0.22139   -0.16508   -0.01402    9.80888
372662.452700   -0.05122    0.02458    0.14473   -0.16915   -0.02516    9.83002
372662.462700    0.01839   -0.12336    0.23904   -0.17074   -0.01506    9.83386
372662.472700    0.13167    0.21560    0.22540   -0.16209   -0.01853    9.80571
372662.482700    0.10308    0.02378    0.23062   -0.16743   -0.02033    9.81428
372662.492700    0.07918    0.14576    0.09036   -0.17333   -0.01233    9.82706
372662.502700    0.16587    0.05334    0.12256   -0.16825   -0.01069    9.80565
372662.512700    0.07414    0.33438    0.19320   -0.16203   -0.02023    9.83175
372662.522700    0.09288   -0.01318    0.34395   -0.17183   -0.01503    9.83279
372662.532700    0.17028    0.03581    0.33787   -0.16017   -0.02158    9.81500
372662.542700    0.10938    0.13018    0.30372   -0.16958   -0.02092    9.82748
372662.552700    0.07340   -0.03558    0.41138   -0.16668   -0.01341    9.82457
372662.562700    0.05678    0.20615    0.27794   -0.16618   -0.01746    9.82389
372662.572700    0.05466   -0.25216    0.33667   -0.16331   -0.02921    9.82969
372662.582700    0.20042   -0.06772    0.28390   -0.17277   -0.02331    9.82538
372662.592700    0.11385    0.11849    0.26855   -0.17061   -0.01064    9.82277
372662.602700    0.10984    0.11144    0.15808   -0.16896   -0.01186    9.83739
372662.612700    0.02624    0.16255    0.42748   -0.16757   -0.00924    9.82454
372662.622700   -0.10921    0.16599    0.29673   -0.16761   -0.00980    9.81848
372662.632700    0.11075    0.21457    0.13247   -0.17235   -0.02196    9.82821
372662.642700    0.13757   -0.06240    0.50065   -0.16177   -0.01877    9.82924
372662.652700    0.01026   -0.00751    0.27135   -0.17326   -0.01375    9.82636
372662.662700    0.05752    0.01633    0.27410   -0.16117   -0.01673    9.82815
372662.672700    0.01633   -0.02722    0.12594   -0.16795   -0.02336    9.82501
372662.682700    0.02429   -0.09935    0.21537   -0.17349   -0.02244    9.82358
372662.692700    0.06549    0.14542    0.34830   -0.17020   -0.01811    9.82533
372662.702700    0.11396    0.13900    0.37815   -0.16642   -0.01537    9.82850
372662.712700    0.01856   -0.01604    0.32470   -0.16899   -0.02340    9.82323
372662.722700    0.05380    0.02080    0.26797   -0.17084   -0.02130    9.83355
372662.732700    0.07855    0.08531    0.36131   -0.16568   -0.01725    9.82281
372662.742700    0.06537    0.14072    0.30968   -0.16624   -0.01626    9.81211
372662.752700    0.14255    0.24603    0.37609   -0.16790   -0.01976    9.83639
372662.762700    0.26196    0.27015    0.32315   -0.17015   -0.01225    9.82099
372662.772700    0.25812    0.13768    0.40640   -0.16788   -0.01227    9.81458
372662.782700    0.08858    0.26780    0.35168   -0.16409   -0.02226    9.83604
372662.792700    0.20758   -0.01117    0.10548   -0.15639   -0.00906    9.82202
372662.802700    0.16484    0.02928    0.31135   -0.18026   -0.01582    9.81605
372662.812700    0.22208    0.04068    0.34389   -0.16427   -0.02490    9.82822
372662.822700    0.23302    0.19979    0.32343   -0.17007   -0.01019    9.82561
372662.832700    0.06406    0.08743    0.25966   -0.16395   -0.01612    9.81532
372662.842700    0.04738    0.09093    0.15791   -0.16880   -0.01957    9.83068
372662.852700   -0.01518    0.02813    0.24179   -0.16603   -0.01097    9.82561
372662.862700    0.29089    0.03455    0.25760   -0.17128   -0.01675    9.81177
372662.872700    0.13803   -0.07689    0.34332   -0.17317   -0.00846    9.83310
372662.882700    0.10422    0.05930    0.16627   -0.16262   -0.01392    9.83134
372662.892700    0.20380    0.14312    0.19933   -0.16495   -0.00194    9.81520
372662.902700    0.13837    0.21440    0.06681   -0.16819   -0.01602    9.83279
372662.912700    0.10812   -0.01324    0.36623   -0.16453   -0.01776    9.83458
372662.922700   -0.00086    0.01455    0.20930   -0.17026   -0.01936    9.81749
372662.932700   -0.13906    0.06555    0.24133   -0.16682   -0.01038    9.83381
372662.942700    0.18329    0.13218    0.50787   -0.17137   -0.01014    9.82312
372662.952700    0.23846    0.04956    0.44358   -0.17087   -0.01020    9.81991
372662.962700   -0.15825   -0.04269    0.34876   -0.17215   -0.02222    9.82749
372662.972700   -0.03982    0.26608    0.24706   -0.17663   -0.00454    9.83021
372662.982700    0.00957    0.19641    0.36601   -0.17622   -0.02449    9.81220
372662.992700    0.08634    0.17447    0.21073   -0.17291   -0.02474    9.83038
372663.002700   -0.10565    0.20111    0.44949   -0.16205   -0.00657    9.82379
372663.012700    0.15046    0.10485    0.21308   -0.15963   -0.01856    9.81319
372663.022700    0.10497    0.02343    0.31490   -0.16290   -0.01560    9.84027
372663.032700    0.16770    0.06916    0.21589   -0.16102   -0.00189    9.82339
372663.042700   -0.06606    0.00584    0.20758   -0.16297   -0.00618    9.82201
372663.052700    0.10663   -0.02532    0.43195   -0.16653   -0.03151    9.83541
372663.062700   -0.05117   -0.01381    0.34074   -0.16469   -0.01831    9.82210
372663.072700    0.12061    0.06933    0.29473   -0.17196   -0.01930    9.81428
372663.082700    0.17613    0.11843    0.18610   -0.16703   -0.02459    9.83215
372663.092700    0.04383    0.08251    0.08056   -0.16604   -0.00964    9.81812
372663.102700    0.11196    0.25548    0.33547   -0.17176   -0.02003    9.80538
372663.112700    0.17647    0.03833    0.32315   -0.16453   -0.02871    9.82968
372663.122700    0.07385    0.18151    0.23314   -0.16377   -0.02035    9.81179
372663.132700    0.03696    0.09041    0.20644   -0.17302   -0.01927    9.81285
372663.142700    0.24706   -0.04171    0.35311   -0.16280   -0.01872    9.82425
372663.152700    0.16581    0.11832    0.30928   -0.16310   -0.00949    9.82345
372663.162700    0.00762   -0.07173    0.06050   -0.16286   -0.01339    9.81957
372663.172700    0.02464    0.08778    0.23875   -0.15852   -0.01155    9.83345
372663.182700    0.16495    0.00006    0.23864   -0.17498   -0.01790    9.81321
372663.192700    0.08812    0.19377    0.28917   -0.17065   -0.01788    9.82212
372663.202700    0.03707    0.10359    0.31169   -0.16123   -0.02119    9.82712
372663.212700    0.00493    0.05105    0.15527   -0.17301   -0.01178    9.81743
372663.222700    0.13207    0.14249    0.19853   -0.17022   -0.02947    9.82292
372663.232700    0.11602    0.17492    0.26121   -0.17127   -0.01779    9.83210
372663.242700   -0.04790   -0.06205    0.10353   -0.17797   -0.00353    9.82771
372663.252700    0.09689    0.11929    0.29467   -0.16856   -0.01196    9.81386
372663.262700    0.04131    0.03260    0.32911   -0.16492   -0.01055    9.83131
372663.272700    0.08697    0.00848    0.27800   -0.17605   -0.01074    9.81101
372663.282700    0.22024   -0.04458    0.38279   -0.17279   -0.02152    9.83641
372663.292700    0.12806   -0.03048    0.16673   -0.16975   -0.01160    9.82562
372663.302700   -0.03879    0.08016    0.28000   -0.17798   -0.00346    9.82415
372663.312700    0.01232    0.08990    0.29450   -0.16365   -0.02139    9.81072
372663.322700    0.04005    0.06503    0.31914   -0.15812   -0.02008    9.83958
372663.332700    0.05059    0.09225    0.31713   -0.17240    0.00132    9.81732
372663.342700    0.15493   -0.04177    0.34675   -0.17155   -0.02023    9.81607
372663.352700    0.05237    0.01226    0.35260   -0.15942   -0.01744    9.82566
372663.362700    0.22746   -0.09545    0.27697   -0.17148   -0.00917    9.81028
372663.372700   -0.02905    0.07534    0.21274   -0.16671   -0.02067    9.82463
372663.382700   -0.07569    0.04171    0.36303   -0.17256   -0.01829    9.82818
372663.392700    0.24654   -0.06916    0.14100   -0.17698   -0.01269    9.81175
372663.402700    0.08039    0.11912    0.16788   -0.16434   -0.02399    9.82572
372663.412700    0.23211   -0.04458    0.18403   -0.16498   -0.00771    9.82595
372663.422700    0.13138   -0.02762    0.30080   -0.17504   -0.01093    9.81244
372663.432700    0.06727    0.03718    0.29479   -0.17292   -0.02202    9.82501
372663.442700   -0.00819    0.14037    0.23062   -0.16261   -0.01334    9.83276
372663.452700   -0.04578    0.18117    0.30126   -0.17902   -0.01531    9.81355
372663.462700    0.23463    0.15676    0.35311   -0.17017   -0.02355    9.82502
372663.472700    0.09878    0.01392    0.27680   -0.17711   -0.00649    9.82203
372663.482700    0.00092    0.04629    0.24242   -0.17431   -0.01696    9.81426
372663.492700    0.01129    0.03776    0.17441   -0.16762   -0.02747    9.83182
372663.502700   -0.01364    0.04847    0.22271   -0.17706   -0.01664    9.82212
372663.512700    0.16914    0.20861    0.24597   -0.17201   -0.00986    9.82098
372663.522700    0.24901    0.13636    0.37042   -0.17368   -0.01874    9.83139
372663.532700    0.19555   -0.00269    0.34246   -0.16678   -0.00015    9.82553
372663.542700   -0.03810    0.13734    0.36818   -0.18067   -0.01229    9.80782
372663.552700    0.10502   -0.09293    0.28591   -0.16621   -0.02956    9.82577
372663.562700    0.06996    0.11522    0.26792   -0.17302   -0.00065    9.82305
372663.572700    0.14364    0.04607    0.16576   -0.18507   -0.01963    9.81716
372663.582700    0.09402   -0.00665    0.15699   -0.16275   -0.02323    9.84639
372663.592700    0.10330    0.19927    0.29278   -0.16117   -0.00544    9.80809
372663.602700    0.10393    0.20489    0.18747   -0.17481   -0.01931    9.81643
372663.612700    0.12393    0.09901    0.33289   -0.15945   -0.01832    9.83637
372663.622700    0.03793    0.08188    0.16725   -0.16683   -0.01694    9.81567
372663.632700    0.13848    0.10961    0.41012   -0.17875   -0.03204    9.81333
372663.642700    0.13058    0.06211    0.32223   -0.16812   -0.01472    9.83314
372663.652700    0.03140    0.05959    0.35157   -0.18161   -0.00660    9.82311
372663.662700    0.23199    0.13573    0.31140   -0.16784   -0.02002    9.82355
372663.672700   -0.00705    0.01736    0.25726   -0.16948   -0.01514    9.82815
372663.682700    0.23411    0.07208    0.30986   -0.17027   -0.01917    9.81677
372663.692700    0.02063    0.04950    0.31215   -0.16180   -0.02782    9.83502
372663.702700    0.01988    0.02429    0.31742   -0.17186   -0.01063    9.83454
372663.712700    0.08165    0.07987    0.18340   -0.18170   -0.00945    9.80923
372663.722700    0.15613    0.00842    0.29272   -0.17253   -0.01741    9.82497
372663.732700    0.08497   -0.02767    0.38640   -0.17329   -0.00822    9.82810
372663.742700    0.04927    0.17710    0.40525   -0.16717   -0.01444    9.82208
372663.752700    0.10817    0.17601    0.31547   -0.16609   -0.02810    9.82968
372663.762700    0.06251   -0.00991    0.40325   -0.16215   -0.01058    9.83060
372663.772700    0.16100    0.21028    0.41511   -0.16794   -0.00676    9.82166
372663.782700    0.20896    0.20145    0.35231   -0.16339   -0.02186    9.82570
372663.792700    0.18025    0.14312    0.39202   -0.16407   -0.01811    9.81605
372663.802700    0.07804    0.24786    0.32573   -0.17005   -0.01957    9.81179
372663.812700    0.00349    0.17618    0.34670   -0.17339   -0.02755    9.83396
372663.822700    0.02063    0.09133    0.13109   -0.16260   -0.01198    9.82990
372663.832700    0.02418    0.22030    0.18283   -0.16728   -0.01722    9.81996
372663.842700    0.09414    0.04228    0.37431   -0.16887   -0.00924    9.82453
372663.852700    0.11952    0.07248    0.26534   -0.17749   -0.01444    9.82531
372663.862700    0.04824    0.25170    0.27720   -0.17905   -0.01565    9.80749
372663.872700    0.06537    0.10548    0.43241   -0.16939   -0.03295    9.83614
372663.882700   -0.02939    0.06010    0.07815   -0.15386   -0.03056    9.82576
372663.892700    0.18197    0.27118    0.17664   -0.16896   -0.02087    9.82499
372663.902700    0.01541    0.08726    0.48289   -0.16258   -0.02375    9.82999
372663.912700    0.01455    0.14685    0.36486   -0.16200   -0.01437    9.82100
372663.922700    0.06194    0.13344    0.31730   -0.16542   -0.01479    9.81709
372663.932700    0.17464    0.12433    0.28785   -0.17220   -0.02574    9.83181
372663.942700    0.07947    0.01656    0.42559   -0.17082   -0.01132    9.82563
372663.952700    0.16186    0.24563    0.28826   -0.17652   -0.01367    9.81852
372663.962700    0.15625   -0.05626    0.18060   -0.17979   -0.02366    9.83002
372663.972700    0.00407   -0.05781    0.16404   -0.16180   -0.02436    9.82287
372663.982700    0.11740    0.10290    0.24546   -0.16742   -0.02269    9.82072
372663.992700    0.14261    0.22151    0.33942   -0.16954   -0.02152    9.83141
372664.002700    0.22236   -0.12783    0.26740   -0.17177   -0.00610    9.82488
372664.012700    0.01014    0.15871    0.39803   -0.17511   -0.02002    9.81715
372664.022700    0.10737    0.11614    0.21389   -0.15942   -0.02404    9.82536
372664.032700    0.07529    0.11327    0.22271   -0.17028   -0.01065    9.81777
372664.042700   -0.01404    0.27485    0.16536   -0.16521   -0.02376    9.81859
372664.052700    0.09127    0.23130    0.27118   -0.15889   -0.02189    9.82854
372664.062700   -0.00178    0.03163    0.22655   -0.16579   -0.00729    9.81453
372664.072700   -0.04756    0.06406    0.31541   -0.17496   -0.02318    9.81860
372664.082700    0.24970   -0.01049    0.17349   -0.15552   -0.01721    9.83208
372664.092700    0.01134    0.11832    0.12743   -0.17305   -0.00830    9.81562
372664.102700    0.09460   -0.02194    0.30264   -0.16660   -0.02379    9.81645
372664.112700    0.20380   -0.00235    0.13092   -0.17565   -0.01811    9.82854
372664.122700    0.11201    0.26213    0.40583   -0.17393   -0.00485    9.81203
372664.132700   -0.11591    0.08291    0.26247   -0.16331   -0.02306    9.82072
372664.142700    0.16776   -0.04796    0.17899   -0.15517   -0.01417    9.83775
372664.152700    0.03776    0.27697    0.43447   -0.16206   -0.02505    9.82251
372664.162700    0.02063   -0.16541    0.31203   -0.16582   -0.01373    9.82671
372664.172700    0.15075    0.00659    0.31341   -0.15589   -0.02075    9.82925
372664.182700    0.09517    0.13596    0.38188   -0.17719   -0.01201    9.82244
372664.192700    0.15602   -0.09425    0.29754   -0.16991   -0.02299    9.83250
372664.202700   -0.12800    0.24546    0.53411   -0.16102   -0.01864    9.82389
372664.212700    0.02641    0.21669    0.32143   -0.16686   -0.02421    9.80968
372664.222700    0.19830    0.03123    0.18747   -0.17272   -0.02839    9.83789
372664.232700    0.04337    0.29284    0.25182   -0.16827   -0.01862    9.81891
372664.242700   -0.08354    0.09328    0.27846   -0.16813   -0.02487    9.81967
372664.252700    0.30986    0.03249    0.36400   -0.16628   -0.01867    9.82853
372664.262700    0.20254   -0.02693    0.19498   -0.16458   -0.00874    9.82881
372664.272700    0.21245    0.19945    0.29931   -0.18100   -0.01545    9.81677
372664.282700   -0.08079    0.00579    0.36881   -0.16358   -0.01924    9.83317
372664.292700    0.27811    0.14805    0.32659   -0.17803    0.00018    9.81556
372664.302700    0.26631   -0.04589    0.23285   -0.16867   -0.02216    9.82072
372664.312700    0.12244    0.02246    0.45550   -0.16422   -0.01176    9.84488
372664.322700    0.21251    0.00332    0.28562   -0.17429   -0.01190    9.82564
372664.332700    0.18421   -0.12256    0.31581   -0.15860   -0.02287    9.82213
372664.342700    0.06526    0.04332    0.30499   -0.17767   -0.02127    9.83677
372664.352700    0.09162   -0.06079    0.11024   -0.16783   -0.00164    9.82197
372664.362700    0.06984    0.18627    0.40325   -0.16373   -0.01820    9.82033
372664.372700    0.14490    0.15647    0.29032   -0.16927   -0.01957    9.81998
372664.382700   -0.04859    0.21199    0.37603   -0.17307   -0.01731    9.81426
372664.392700    0.09259   -0.06658    0.36131   -0.17062   -0.02813    9.82897
372664.402700    0.01919    0.09511    0.29920   -0.16780   -0.01400    9.84097
372664.412700    0.16610    0.15808    0.23021   -0.17173   -0.01194    9.81636
372664.422700    0.03048    0.26516    0.02343   -0.17069   -0.01781    9.82747
372664.432700    0.03896   -0.04274    0.20094   -0.17198    0.00242    9.82302
372664.442700    0.06847    0.11952    0.37958   -0.16579   -0.02099    9.82107
372664.452700    0.09419    0.17045    0.44209   -0.16470   -0.02117    9.82819
372664.462700    0.17584   -0.05128    0.22477   -0.16432   -0.00503    9.82699
372664.472700    0.06394    0.00441    0.24505   -0.16109   -0.02508    9.82501
372664.482700    0.06807    0.14158    0.32166   -0.16096   -0.02162    9.82249
372664.492700    0.21984    0.06824    0.30355   -0.15960   -0.01281    9.82811
372664.502700    0.08589   -0.05810    0.27141   -0.16534   -0.01034    9.81776
372664.512700    0.16215    0.24351    0.07128   -0.16765   -0.00287    9.82947
372664.522700    0.07357    0.13854    0.08869   -0.17581   -0.00589    9.82024
372664.532700    0.07208    0.12834    0.10852   -0.16440   -0.00967    9.81491
372664.542700    0.07534    0.15871    0.38698   -0.16059   -0.01953    9.82675
372664.552700    0.06171    0.12256    0.21520   -0.16720   -0.01189    9.80780
372664.562700   -0.03438    0.11700    0.35420   -0.16915   -0.02172    9.83213
372664.572700    0.03111    0.09127    0.29696   -0.16682   -0.01371    9.82992
372664.582700    0.20506    0.17355    0.41660   -0.17005   -0.00958    9.80707
372664.592700    0.07322    0.08657    0.34578   -0.16953   -0.01994    9.81927
372664.602700    0.06635   -0.03008    0.41184   -0.16593   -0.00956    9.83488
372664.612700    0.01845   -0.04257    0.47922   -0.17575   -0.01148    9.81173
372664.622700    0.19887   -0.05959    0.36108   -0.15418   -0.01525    9.83062
372664.632700    0.02790    0.08228    0.16845   -0.17468   -0.00717    9.83379
372664.642700    0.16381   -0.02298    0.10078   -0.16459   -0.01890    9.80821
372664.652700   -0.01833    0.12794    0.34091   -0.15645   -0.02343    9.82820
372664.662700    0.04595    0.12009    0.28894   -0.16153   -0.02430    9.83107
372664.672700   -0.00739    0.17561    0.31186   -0.16902   -0.00936    9.81669
372664.682700    0.01919    0.02584    0.35122   -0.16006   -0.02744    9.83216
372664.692700    0.13293    0.05311    0.24001   -0.17617   -0.01298    9.82885
372664.702700    0.05306    0.23835    0.31982   -0.17422   -0.01725    9.80928
372664.712700    0.13596    0.20552    0.17366   -0.16648   -0.01805    9.83281
372664.722700    0.11482    0.27926    0.21921   -0.16795   -0.01087    9.83061
372664.732700    0.04910    0.17596    0.29759   -0.17613   -0.01908    9.80858
372664.742700    0.20500    0.10537    0.15882   -0.15884   -0.01423    9.82848
372664.752700   -0.01719    0.20569    0.12479   -0.17081   -0.00838    9.82168
372664.762700    0.11201    0.15636    0.39334   -0.16773   -0.02326    9.82109
372664.772700    0.09339    0.01902    0.31003   -0.16305   -0.02537    9.82965
372664.782700    0.25262    0.03988    0.37151   -0.17887   -0.01401    9.81889
372664.792700    0.24144    0.09792    0.35758   -0.17399   -0.01567    9.82246
372664.802700    0.19933    0.05919    0.25617   -0.16247   -0.02253    9.83142
372664.812700    0.14473    0.02527    0.22019   -0.16810   -0.01845    9.81748
372664.822700    0.12468    0.06343    0.17676   -0.17044   -0.02508    9.81433
372664.832700    0.13424    0.05283    0.31988   -0.16390   -0.01563    9.83171
372664.842700    0.13029    0.12777    0.09912   -0.16891   -0.01439    9.81424
372664.852700    0.14845   -0.03512    0.32120   -0.17251   -0.01815    9.82177
372664.862700    0.12032    0.15304    0.15218   -0.17034   -0.01190    9.83133
372664.872700    0.21406    0.01089    0.27267   -0.16749   -0.00892    9.80742
372664.882700    0.12450    0.13442    0.30258   -0.16927   -0.01744    9.82068
372664.892700    0.02968    0.09603    0.21262   -0.16503   -0.01715    9.83315
372664.902700    0.20615    0.16478    0.15315   -0.16698   -0.00511    9.80275
372664.912700    0.12250   -0.07483    0.18999   -0.16690   -0.02576    9.82503
372664.922700    0.17962    0.07208    0.32000   -0.14983   -0.01622    9.83775
372664.932700    0.10514    0.00573    0.30665   -0.16402   -0.00784    9.81025
372664.942700    0.04498    0.03942    0.33146   -0.15835   -0.02676    9.83180
372664.952700   -0.02733    0.12708    0.35455   -0.17361   -0.01760    9.82889
372664.962700   -0.08589    0.14513    0.30458   -0.17550   -0.01419    9.82672
372664.972700    0.04561   -0.15716    0.23262   -0.16340   -0.02604    9.83251
372664.982700   -0.10657    0.10124    0.37311   -0.17715   -0.00900    9.82883
372664.992700    0.21560   -0.00458    0.38142   -0.18308   -0.00719    9.80708
372665.002700    0.04704    0.15092    0.19801   -0.15538   -0.02356    9.83925
372665.012700    0.13780    0.12611    0.25038   -0.17246   -0.00614    9.82416
372665.022700    0.33535    0.15768    0.27215   -0.17716   -0.01598    9.81748
372665.032700    0.00487    0.16306    0.18249   -0.15839   -0.02677    9.83785
372665.042700   -0.07586    0.12977    0.28407   -0.16234   -0.01620    9.82708
372665.052700    0.21463    0.16455    0.27181   -0.17070   -0.01816    9.80999
372665.062700    0.14542    0.00063    0.31570   -0.16798   -0.00949    9.83024
372665.072700    0.07489    0.04882    0.20563   -0.16409   -0.01198    9.82241
372665.082700    0.05667    0.05157    0.37007   -0.17048   -0.01573    9.82032
372665.092700    0.14089    0.07718    0.20936   -0.16226   -0.02053    9.83139
372665.102700    0.10382    0.20082    0.16627   -0.16559   -0.00472    9.81630
372665.112700   -0.05323    0.02131    0.30246   -0.17465   -0.02185    9.80682
372665.122700   -0.01415    0.10124    0.23583   -0.16564   -0.01579    9.82958
372665.132700    0.05661    0.14685    0.09901   -0.17516   -0.01658    9.81997
372665.142700    0.15882   -0.05065    0.14416   -0.16761   -0.02352    9.83000
372665.152700    0.02303    0.16387    0.29588   -0.17237   -0.01721    9.83565
372665.162700    0.07786    0.04864    0.31891   -0.16432   -0.01237    9.82063
372665.172700    0.04773    0.10800    0.22248   -0.17087   -0.01892    9.82248
372665.182700    0.16971    0.25663    0.23182   -0.16796   -0.00874    9.82453
372665.192700   -0.02882   -0.03650    0.23445   -0.16841   -0.01208    9.81707
372665.202700   -0.01684    0.11728    0.21503   -0.17408   -0.01967    9.82071
372665.212700    0.16805    0.18083    0.34125   -0.16254   -0.02143    9.83390
372665.222700    0.03088    0.11408    0.34108   -0.16544   -0.00828    9.81739
372665.232700    0.07426    0.07196    0.32859   -0.17256   -0.02544    9.82290
372665.242700    0.07603    0.01742    0.21835   -0.15912   -0.00877    9.84342
372665.252700   -0.05443   -0.04120    0.34962   -0.16731   -0.00800    9.82167
372665.262700   -0.09087    0.13843    0.39717   -0.16332   -0.02250    9.82392
372665.272700   -0.00670    0.05689    0.17298   -0.16356   -0.01268    9.83133
372665.282700    0.02945    0.16524    0.34882   -0.17892   -0.00564    9.81311
372665.292700   -0.08405    0.11797    0.26431   -0.16817   -0.01412    9.83385
372665.302700    0.11396    0.17802    0.21675   -0.17274   -0.01261    9.82991
372665.312700   -0.06205    0.16805    0.49893   -0.17166   -0.01470    9.81389
372665.322700    0.14032    0.18690    0.35271   -0.16436   -0.02739    9.82290
372665.332700    0.10943    0.00069    0.23102   -0.16699   -0.02086    9.83069
372665.342700    0.14009    0.00980    0.34446   -0.17161   -0.01200    9.81743
372665.352700    0.01020    0.09975    0.25308   -0.17226   -0.02517    9.82467
372665.362700    0.08021    0.16060    0.23755   -0.16676   -0.02091    9.82748
372665.372700    0.14387   -0.03266    0.29146   -0.17547   -0.00449    9.80917
372665.382700    0.16077    0.11367    0.39889   -0.17056   -0.01503    9.82922
372665.392700    0.05741    0.10795    0.21240   -0.16820   -0.01333    9.82457
372665.402700    0.14026    0.12193    0.15418   -0.17651   -0.01586    9.81533
372665.412700   -0.01925    0.14009    0.41018   -0.16144   -0.02607    9.83643
372665.422700    0.18243    0.03019    0.23027   -0.15568   -0.01014    9.83094
372665.432700    0.10858    0.06039    0.41706   -0.17066   -0.01751    9.80714
372665.442700   -0.04354    0.27697    0.19990   -0.16559   -0.01448    9.83277
372665.452700    0.17693    0.14593    0.21262   -0.17204   -0.00955    9.82419
372665.462700    0.03443    0.07116    0.53279   -0.16850   -0.02066    9.82321
372665.472700   -0.01639    0.11625    0.34360   -0.15982   -0.02207    9.82499
372665.482700    0.03747    0.03518    0.23617   -0.17304   -0.01962    9.81464
372665.492700    0.02120    0.27445    0.28098   -0.16901   -0.01688    9.81533
372665.502700    0.00779    0.04807    0.17664   -0.16247   -0.02092    9.82925
372665.512700    0.04045    0.10943    0.17641   -0.17159   -0.01686    9.81890
372665.522700    0.17859   -0.02166    0.30063   -0.17532   -0.01544    9.81533
372665.532700    0.20684    0.16020    0.41803   -0.18060   -0.01338    9.83428
372665.542700    0.20025    0.03226    0.21709   -0.17086   -0.01786    9.82470
372665.552700    0.16868    0.04996    0.19532   -0.17221   -0.02618    9.81942
372665.562700    0.13212    0.22105    0.16673   -0.16399   -0.02779    9.83261
372665.572700    0.23073    0.15825    0.03678   -0.17025   -0.01749    9.81756
372665.582700    0.18100    0.11522    0.30126   -0.17071   -0.01209    9.81537
372665.592700    0.05386    0.21113    0.28442   -0.17135   -0.00968    9.82356
372665.602700    0.11173    0.14691    0.27605   -0.16691   -0.01059    9.82427
372665.612700    0.22552    0.27382    0.44112   -0.17346   -0.01680    9.82255
372665.622700    0.08967   -0.07615    0.29645   -0.17242   -0.02331    9.83723
372665.632700    0.26253    0.03317    0.40972   -0.16168   -0.00164    9.81848
372665.642700    0.10777    0.00974    0.32693   -0.16428   -0.02299    9.81796
372665.652700    0.23147    0.10651    0.40840   -0.16984   -0.01877    9.83825
372665.662700    0.15590    0.13631    0.37769   -0.18171   -0.00769    9.81428
372665.672700    0.27846    0.31123    0.29456   -0.16070   -0.02734    9.82511
372665.682700    0.02000    0.05506    0.40010   -0.17663   -0.02307    9.84044
372665.692700    0.06073   -0.04555    0.32235   -0.16575    0.00095    9.82311
372665.702700    0.09293    0.03226    0.50758   -0.17126   -0.00901    9.81785
372665.712700   -0.00258    0.18478    0.45103   -0.16780   -0.02210    9.83328
372665.722700    0.07695    0.11912    0.18592   -0.16418   -0.00458    9.81316
372665.732700    0.16730    0.15223    0.32280   -0.16092   -0.02987    9.82549
372665.742700    0.05558    0.17802    0.15430   -0.15932   -0.00714    9.83814
372665.752700    0.15808    0.07620    0.24471   -0.15572   -0.02099    9.81186
372665.762700    0.12651    0.10852    0.29679   -0.16636   -0.02034    9.82007
372665.772700   -0.03203    0.16008    0.14513   -0.16990   -0.01069    9.84032
372665.782700   -0.03633    0.11608    0.28270   -0.17000   -0.01396    9.80933
372665.792700    0.16874    0.06176    0.25571   -0.16705   -0.01996    9.82186
372665.802700    0.17905    0.16369    0.42261   -0.16370   -0.01844    9.83538
372665.812700    0.20529   -0.06812    0.38125   -0.16428   -0.01167    9.81501
372665.822700    0.17796   -0.06148    0.21933   -0.16631   -0.02953    9.82763
372665.832700    0.10141   -0.00166    0.25233   -0.16144   -0.01469    9.83571
372665.842700    0.14227    0.06136    0.34647   -0.17584   -0.00628    9.81962
372665.852700    0.06222    0.18621    0.31799   -0.16647   -0.02002    9.82506
372665.862700    0.04813    0.03913    0.23486   -0.17018   -0.00484    9.83136
372665.872700    0.17063    0.11453    0.16633   -0.16272   -0.02407    9.81154
372665.882700    0.20529    0.05735    0.18111   -0.15215   -0.02221    9.83041
372665.892700    0.09236    0.01730    0.27720   -0.16219   -0.01241    9.82963
372665.902700    0.08571    0.23709    0.19887   -0.16761   -0.01779    9.80508
372665.912700    0.13579    0.09460    0.37237   -0.17165   -0.00825    9.83068
372665.922700   -0.04767    0.09958    0.41769   -0.16714   -0.00521    9.82958
372665.932700    0.06950    0.05730    0.22746   -0.16376   -0.01277    9.81786
372665.942700    0.09356    0.07735    0.25371   -0.16051   -0.01580    9.82574
372665.952700    0.24276    0.16117    0.20512   -0.16956   -0.01706    9.83039
372665.962700    0.12078    0.14284    0.32349   -0.17926   -0.01694    9.81615
372665.972700    0.09614    0.10073    0.06652   -0.17467   -0.02209    9.82973
372665.982700    0.09586    0.10061    0.22563   -0.16160   -0.00550    9.82637
372665.992700    0.16639    0.17596    0.37116   -0.17415   -0.01620    9.81684
372666.002700    0.15917    0.03724    0.21452   -0.16567   -0.02267    9.82722
372666.012700    0.14324   -0.09368    0.27972   -0.18492   -0.01064    9.83072
372666.022700    0.12399    0.14668    0.19498   -0.16139   -0.01858    9.81506
372666.032700    0.05277    0.15006    0.27118   -0.16617   -0.01275    9.82571
372666.042700    0.25852    0.14668    0.31117   -0.17723   -0.00509    9.82567
372666.052700    0.10193    0.00934    0.43831   -0.15843   -0.01057    9.81998
372666.062700    0.03730   -0.00602    0.35907   -0.16865   -0.02658    9.82655
372666.072700    0.00630    0.11895    0.24706   -0.16752   -0.01249    9.82607
372666.082700    0.03037    0.14072    0.26310   -0.16369   -0.02328    9.80975
372666.092700    0.03850    0.20718    0.24127   -0.16762   -0.01815    9.83467
372666.102700    0.00917    0.29227    0.24081   -0.18562   -0.00709    9.82677
372666.112700    0.02206    0.01209    0.39030   -0.15322   -0.01724    9.82466
372666.122700    0.13476   -0.07861    0.42152   -0.17628   -0.01955    9.83506
372666.132700   -0.10032   -0.02624    0.33827   -0.16631   -0.01974    9.82898
372666.142700   -0.01730   -0.00928    0.33472   -0.16711   -0.02117    9.81687
372666.152700    0.20317    0.18295    0.45413   -0.16373   -0.02155    9.82757
372666.162700    0.09740    0.12691    0.24798   -0.17139   -0.00671    9.81783
372666.172700   -0.04979    0.01639    0.31198   -0.17432   -0.01909    9.82079
372666.182700    0.07855    0.01455    0.16203   -0.16496   -0.02002    9.83041
372666.192700   -0.05667    0.08732    0.32149   -0.17376   -0.00741    9.82354
372666.202700    0.10336    0.16788    0.20025   -0.16269   -0.01950    9.82434
372666.212700    0.20105    0.06503    0.29261   -0.16056   -0.01771    9.83145
372666.222700    0.26236    0.11981    0.31765   -0.17518   -0.00992    9.81786
372666.232700    0.21434    0.16484    0.25342   -0.16599   -0.02441    9.81334
372666.242700    0.28550    0.15361    0.37512   -0.17101   -0.01744    9.81970
372666.252700    0.20701    0.10222    0.33295   -0.16970   -0.00406    9.82172
372666.262700    0.01673    0.07872    0.27777   -0.16672   -0.00995    9.82962
372666.272700   -0.10267    0.08898    0.52827   -0.17258   -0.01295    9.82608
372666.282700    0.20013    0.25881    0.23594   -0.17036   -0.01944    9.83005
372666.292700    0.10015    0.24958    0.30499   -0.18103   -0.01588    9.82755
372666.302700    0.07660    0.00625    0.41585   -0.16930   -0.02307    9.83579
372666.312700    0.06635    0.00074    0.23766   -0.16782   -0.00968    9.81963
372666.322700    0.15155   -0.07993    0.30476   -0.16972   -0.02822    9.81765
372666.332700    0.14456    0.12502    0.45860   -0.16683   -0.01157    9.83212
372666.342700    0.21555    0.04635    0.27914   -0.17272   -0.00927    9.81678
372666.352700    0.12926   -0.02286    0.25502   -0.16702   -0.02064    9.82079
372666.362700    0.13207    0.21165    0.38904   -0.16214   -0.02097    9.82827
372666.372700    0.03380    0.14152    0.23251   -0.17369   -0.01416    9.82395
372666.382700   -0.02595    0.05781    0.33713   -0.16737   -0.02216    9.82437
372666.392700    0.15435    0.10021    0.36973   -0.17441   -0.01025    9.83141
372666.402700    0.23033   -0.03776    0.18971   -0.16648   -0.01792    9.81613
372666.412700    0.20827    0.25583    0.29811   -0.17248   -0.02205    9.81795
372666.422700    0.02521    0.04234    0.36423   -0.17405   -0.00867    9.83282
372666.432700    0.13270   -0.01564    0.25033   -0.17010   -0.01691    9.82825
372666.442700   -0.04372    0.02510    0.28052   -0.17465   -0.01913    9.82649
372666.452700    0.02636    0.18449    0.22248   -0.16714   -0.01235    9.83499
372666.462700    0.15017   -0.00837    0.39803   -0.17732   -0.01304    9.82859
372666.472700    0.11081   -0.02974    0.35936   -0.16635   -0.02278    9.82188
372666.482700   -0.09517    0.13086    0.16581   -0.16205   -0.00765    9.83030
372666.492700    0.07746    0.04269    0.19968   -0.17613   -0.00868    9.81465
372666.502700   -0.01238    0.09597    0.19853   -0.16570   -0.03322    9.81661
372666.512700    0.00625   -0.00762    0.44989   -0.17196   -0.01141    9.82857
372666.522700    0.10537    0.02767    0.47601   -0.18089   -0.01698    9.82756
372666.532700    0.14433    0.18730    0.22999   -0.16608   -0.02644    9.82939
372666.542700    0.08789    0.19767    0.26889   -0.16487   -0.00506    9.83492
372666.552700   -0.03146    0.02361    0.19624   -0.16838   -0.01314    9.82501
372666.562700    0.11814    0.17905    0.41024   -0.16367   -0.02619    9.82261
372666.572700    0.18856    0.07827    0.29908   -0.17853   -0.01547    9.82469
372666.582700    0.18610    0.03295    0.24884   -0.17221   -0.01339    9.82894
372666.592700    0.11419    0.02618    0.41786   -0.16358   -0.02410    9.82937
372666.602700    0.33678    0.16931    0.25038   -0.16583   -0.01698    9.82682
372666.612700    0.18060    0.00911    0.17710   -0.17124   -0.01373    9.81718
372666.622700   -0.03128    0.05248    0.36606   -0.15988   -0.01515    9.83071
372666.632700    0.06618   -0.07426    0.23726   -0.16905   -0.01690    9.83075
372666.642700    0.14610   -0.06898    0.36967   -0.17056   -0.00616    9.82068
372666.652700    0.18306    0.09465    0.33495   -0.16495   -0.02808    9.83155
372666.662700    0.12101    0.13212    0.36549   -0.16679   -0.01315    9.82287
372666.672700   -0.03163    0.12502    0.44525   -0.16303   -0.02171    9.82043
372666.682700    0.04463    0.01822    0.22082   -0.15352   -0.01609    9.83999
372666.692700   -0.01662   -0.03581    0.45378   -0.17470   -0.01329    9.81361
372666.702700    0.08216    0.03925    0.21973   -0.17367   -0.01654    9.82041
372666.712700    0.14668    0.06005    0.30894   -0.16191   -0.02652    9.82047
372666.722700    0.13081    0.00659    0.25594   -0.17152   -0.01752    9.83468
372666.732700    0.13029   -0.09156    0.38961   -0.17752   -0.01043    9.81145
372666.742700    0.03048    0.25256    0.35294   -0.16315   -0.01419    9.83285
372666.752700   -0.04343    0.34188    0.09167   -0.17441   -0.01223    9.81502
372666.762700    0.02510    0.03610    0.25118   -0.17599   -0.02799    9.81873
372666.772700    0.04463    0.24127    0.27204   -0.16927   -0.01929    9.83433
372666.782700    0.28465    0.15046    0.35833   -0.17027   -0.01470    9.81861
372666.792700    0.00974    0.24374    0.26115   -0.17664   -0.01186    9.81288
372666.802700    0.02882    0.04343    0.39431   -0.16981   -0.01995    9.84004
372666.812700    0.15521    0.01937    0.38560   -0.15919   -0.01365    9.81644
372666.822700    0.01083    0.04561    0.34555   -0.17321   -0.02010    9.81973
372666.832700    0.14840    0.01879    0.18764   -0.17144   -0.02748    9.83262
372666.842700    0.11184    0.00235    0.47005   -0.17026   -0.00839    9.81891
372666.852700    0.18403   -0.02045    0.31742   -0.15937   -0.01578    9.81931
372666.862700    0.22088   -0.01816    0.36881   -0.16248   -0.01866    9.83966
372666.872700    0.26041   -0.00344    0.19503   -0.17028   -0.00338    9.82101
372666.882700    0.11259   -0.05856    0.22580   -0.16772   -0.02103    9.81902
372666.892700    0.11075   -0.01129    0.31175   -0.15871   -0.01219    9.83783
372666.902700   -0.00464    0.17934    0.32618   -0.17211   -0.01084    9.82036
372666.912700   -0.06916    0.06841    0.51646   -0.17286   -0.03021    9.81945
372666.922700    0.16180   -0.20346    0.41534   -0.16935   -0.00988    9.83390
372666.932700    0.04687    0.00023    0.23589   -0.17439   -0.01434    9.80970
372666.942700    0.16719    0.00252    0.14364   -0.17628   -0.01970    9.81545
372666.952700    0.22569   -0.02200    0.17641   -0.16109   -0.02456    9.83365
372666.962700    0.10164    0.11390    0.35896   -0.17317   -0.00117    9.81101
372666.972700    0.02653    0.06732    0.22506   -0.16601   -0.02733    9.81229
372666.982700    0.02716    0.06446    0.47229   -0.16295   -0.01653    9.83145
372666.992700    0.16776    0.16673    0.24202   -0.16418   -0.01374    9.81680
372667.002700    0.07059    0.15435    0.25812   -0.16920   -0.01832    9.81757
372667.012700    0.02361   -0.00344    0.25691   -0.16222   -0.01897    9.82683
372667.022700    0.24998    0.09419    0.33071   -0.16448   -0.00365    9.81601
372667.032700    0.00120    0.21188    0.25319   -0.17021   -0.02697    9.82655
372667.042700    0.21715   -0.02934    0.30401   -0.17187   -0.01372    9.82609
372667.052700    0.18633    0.00613    0.25525   -0.16723   -0.00066    9.82420
372667.062700    0.07517    0.03512    0.30092   -0.15901   -0.02434    9.83008
372667.072700    0.09929   -0.06463    0.28075   -0.16559   -0.02474    9.82974
372667.082700    0.10330    0.13212    0.39740   -0.16378   -0.00725    9.81889
372667.092700    0.22958    0.16089    0.22872   -0.17164   -0.02202    9.82616
372667.102700    0.11597   -0.00688    0.30378   -0.16631   -0.01458    9.82430
372667.112700    0.08445    0.19022    0.50340   -0.16323   -0.00724    9.81140
372667.122700    0.21698    0.07391    0.25594   -0.15754   -0.00917    9.82317
372667.132700    0.15355    0.14227    0.22867   -0.17102   -0.00960    9.82356
372667.142700   -0.06663   -0.09488    0.27943   -0.17626   -0.02720    9.80588
372667.152700    0.05919   -0.24076    0.04916   -0.17293   -0.02682    9.83440
372667.162700   -0.04440    0.05540    0.42101   -0.16196   -0.01343    9.82928
372667.172700    0.09884    0.09368    0.29891   -0.17094   -0.01450    9.81682
372667.182700    0.09643    0.14553    0.24110   -0.16577   -0.02136    9.82685
372667.192700   -0.00544    0.05053    0.30338   -0.16409   -0.00662    9.81853
372667.202700    0.26522    0.11339    0.32418   -0.17133   -0.00988    9.81715
372667.212700    0.11757    0.00573    0.29301   -0.16285   -0.02127    9.82436
372667.222700   -0.00751    0.27903    0.33037   -0.16074   -0.01066    9.83389
372667.232700    0.18312    0.14989    0.24494   -0.17447   -0.01793    9.81222
372667.242700    0.10880    0.22294    0.11665   -0.16827   -0.01856    9.82506
372667.252700    0.00802    0.03615    0.26832   -0.17152   -0.01179    9.82892
372667.262700    0.17710    0.00269    0.13384   -0.16883   -0.01654    9.81720
372667.272700    0.05644    0.15195    0.33621   -0.16774   -0.01232    9.83534
372667.282700    0.02326   -0.02338    0.37563   -0.16609   -0.01905    9.81079
372667.292700    0.21606    0.07913    0.25050   -0.17107   -0.00411    9.81923
372667.302700    0.13155    0.19847    0.18512   -0.17504   -0.02899    9.83299
372667.312700    0.23222    0.05449    0.17424   -0.17094   -0.00539    9.82673
372667.322700    0.20409   -0.02756    0.43172   -0.16014   -0.01274    9.81180
372667.332700    0.08388    0.05460    0.24494   -0.17060   -0.01687    9.83039
372667.342700   -0.06686    0.02681    0.33111   -0.15577   -0.00216    9.82846
372667.352700   -0.00178    0.02143    0.23319   -0.16682   -0.01492    9.81967
372667.362700    0.08004    0.08388    0.22340   -0.16437   -0.02336    9.83044
372667.372700    0.20403   -0.03627    0.34641   -0.17437   -0.00992    9.81857
372667.382700    0.00327   -0.01862    0.29914   -0.16427   -0.01388    9.82323
372667.392700    0.10921   -0.00132    0.46920   -0.15761   -0.02599    9.83223
372667.402700    0.08812    0.17871    0.23560   -0.16864   -0.00928    9.83140
372667.412700    0.06182    0.10720    0.19538   -0.17314   -0.02149    9.80975
372667.422700    0.00756    0.09007    0.26803   -0.16600   -0.02446    9.82831
372667.432700    0.11402   -0.10199    0.32945   -0.17469   -0.01661    9.81435
372667.442700    0.05770    0.14811    0.14037   -0.16414   -0.01872    9.81684
372667.452700    0.07964    0.09821    0.17303   -0.17233   -0.01542    9.83538
372667.462700    0.07689    0.04188    0.25680   -0.17886   -0.00636    9.81855
372667.472700    0.03827    0.23216    0.23606   -0.17454   -0.01944    9.81794
372667.482700    0.02590    0.07517    0.33214   -0.16880   -0.02287    9.83151
372667.492700   -0.01289    0.02361    0.44559   -0.16092   -0.01041    9.81642
372667.502700   -0.02670    0.06629    0.39758   -0.16441   -0.01971    9.81864
372667.512700    0.06629    0.00407    0.24597   -0.16672   -0.00413    9.82707
372667.522700    0.10806    0.13361    0.20329   -0.16755   -0.00623    9.81996
372667.532700    0.15344    0.00172    0.34183   -0.15986   -0.02161    9.82257
372667.542700    0.09437    0.12290    0.39334   -0.17536   -0.01658    9.82826
372667.552700    0.13304    0.23170    0.19509   -0.17204   -0.01218    9.81895
372667.562700    0.20357    0.08892    0.26505   -0.16884   -0.01607    9.82433
372667.572700    0.15997   -0.00424    0.37769   -0.16742   -0.00197    9.82171
372667.582700    0.04624    0.14817    0.20237   -0.17729   -0.01019    9.80860
372667.592700    0.19973    0.15923    0.43745   -0.16372   -0.01837    9.82861
372667.602700   -0.02956    0.07976    0.42834   -0.15785   -0.00825    9.82602
372667.612700    0.02074    0.06663    0.38709   -0.16048   -0.02206    9.82365
372667.622700    0.24855   -0.00642    0.34286   -0.17122   -0.01194    9.81895
372667.632700    0.09838    0.03209    0.24975   -0.17468   -0.00588    9.81890
372667.642700    0.13745    0.06520    0.27668   -0.16782   -0.01452    9.81789
372667.652700    0.03375    0.25462    0.26860   -0.16168   -0.01823    9.83503
372667.662700    0.02653    0.07981    0.32951   -0.16167   -0.01281    9.81786
372667.672700    0.13401    0.11304    0.19280   -0.17613   -0.02388    9.81370
372667.682700    0.06039    0.23348    0.14381   -0.16443   -0.02093    9.83398
372667.692700    0.06698    0.13877    0.52643   -0.16306   -0.01033    9.82355
372667.702700   -0.16157    0.26408    0.16473   -0.16765   -0.01053    9.82177
372667.712700    0.12187    0.10348    0.26849   -0.16054   -0.02088    9.82791
372667.722700    0.17573    0.07093    0.28585   -0.18029   -0.00558    9.82212
372667.732700    0.02888    0.12743    0.33736   -0.16853   -0.01076    9.82499
372667.742700    0.02435    0.18054    0.20678   -0.16645   -0.01824    9.83752
372667.752700    0.02670    0.11774    0.21967   -0.16830   -0.00844    9.81641
372667.762700    0.14937    0.04446    0.26247   -0.17011   -0.02996    9.82123
372667.772700    0.13579    0.02979    0.26986   -0.15349   -0.02534    9.83649
372667.782700    0.10262    0.16490    0.31942   -0.17239   -0.01878    9.81330
372667.792700    0.05970   -0.02166    0.34068   -0.18226   -0.01696    9.82293
372667.802700    0.03140    0.21744    0.21933   -0.16363   -0.02546    9.83152
372667.812700    0.17974    0.12061    0.18673   -0.16273   -0.01515    9.81788
372667.822700    0.03140    0.01616    0.22729   -0.17329   -0.02328    9.81298
372667.832700    0.09729    0.34693    0.27639   -0.16736   -0.01341    9.83285
372667.842700    0.17767    0.06171    0.25073   -0.16953   -0.01134    9.82108
372667.852700    0.10479    0.09694    0.22443   -0.17477   -0.02112    9.81653
372667.862700   -0.00166   -0.02206    0.19950   -0.17012   -0.01316    9.83143
372667.872700    0.01748    0.20082    0.32183   -0.17903   -0.01265    9.81361
372667.882700    0.07259    0.20151    0.18799   -0.16169   -0.01861    9.81827
372667.892700    0.30516    0.12874    0.30911   -0.16711   -0.01873    9.82542
372667.902700    0.05987    0.05844    0.32252   -0.17337   -0.01667    9.81150
372667.912700    0.14135    0.21961    0.25817   -0.17136   -0.01719    9.81471
372667.922700    0.13539    0.08285    0.26230   -0.16882   -0.01963    9.82435
372667.932700    0.16163    0.33587    0.14805   -0.17559   -0.02172    9.81796
372667.942700    0.16169   -0.04572    0.22156   -0.15348   -0.02291    9.82935
372667.952700    0.11092    0.22443    0.24173   -0.18013   -0.01042    9.81502
372667.962700   -0.01232    0.22752    0.29284   -0.17048   -0.01509    9.80434
372667.972700    0.19062    0.04429    0.32567   -0.16953   -0.01638    9.83360
372667.982700    0.08062    0.03833    0.27674   -0.17758   -0.01176    9.82322
372667.992700    0.15304    0.12536    0.27559   -0.17369   -0.02207    9.82188
372668.002700    0.15453    0.13230    0.22718   -0.15477   -0.01739    9.83322
372668.012700    0.07007   -0.01478    0.24712   -0.16219   -0.00965    9.81784
372668.022700    0.10651    0.07563    0.43316   -0.16472   -0.02071    9.81722
372668.032700   -0.04870    0.10588    0.33661   -0.17056   -0.01837    9.83361
372668.042700    0.14026    0.16209    0.25909   -0.17278   -0.00931    9.82071
372668.052700    0.16770   -0.07030    0.13075   -0.16007   -0.02573    9.82474
372668.062700    0.20867    0.17865    0.21704   -0.16370   -0.01190    9.83426
372668.072700    0.20787    0.08841    0.30384   -0.17418   -0.00239    9.81851
372668.082700    0.07569   -0.06280    0.18810   -0.16312   -0.02579    9.83366
372668.092700    0.23440   -0.00739    0.20621   -0.16699   -0.01772    9.83610
372668.102700    0.06898    0.19635    0.23927   -0.16250   -0.00484    9.81103
372668.112700    0.11757   -0.09740    0.34028   -0.15553   -0.02027    9.82255
372668.122700    0.01616    0.08400    0.47619   -0.16949   -0.01244    9.83000
372668.132700    0.21383   -0.10600    0.40348   -0.16521   -0.02543    9.81655
372668.142700    0.22987    0.24185    0.25004   -0.16099   -0.01879    9.82611
372668.152700    0.07431    0.20810    0.21578   -0.17142   -0.01321    9.81931
372668.162700    0.14290   -0.02286    0.30224   -0.17228   -0.01142    9.81145
372668.172700    0.15138    0.21119    0.31037   -0.16449   -0.02020    9.82756
372668.182700   -0.04899    0.02922    0.29009   -0.16571   -0.02186    9.82115
372668.192700    0.20254   -0.06692    0.36371   -0.17665   -0.01513    9.81648
372668.202700    0.02418    0.14066    0.31135   -0.16569   -0.02557    9.82333
372668.212700    0.28304    0.22523    0.37466   -0.15519   -0.01736    9.82253
372668.222700   -0.03982    0.14347    0.14123   -0.16583   -0.01711    9.81683
372668.232700    0.20076    0.10262    0.30556   -0.16599   -0.02744    9.83083
372668.242700    0.15596    0.01793    0.32189   -0.17540   -0.00350    9.81995
372668.252700    0.10680    0.27204    0.20380   -0.17426   -0.01213    9.80896
372668.262700    0.06411    0.18885    0.33002   -0.16923   -0.01961    9.83504
372668.272700    0.10393    0.26081    0.43602   -0.17244   -0.01615    9.82753
372668.282700    0.12009   -0.02951    0.42554   -0.17256   -0.01999    9.82151
372668.292700    0.08090    0.04647    0.41350   -0.16393   -0.03236    9.83407
372668.302700   -0.03111    0.09477    0.24213   -0.17454   -0.00810    9.81392
372668.312700   -0.00097    0.13631    0.21331   -0.17206   -0.01701    9.81541
372668.322700    0.28522    0.15103    0.29645   -0.17720   -0.01014    9.83427
372668.332700    0.06606    0.03415    0.18128   -0.17310   -0.00046    9.82170
372668.342700    0.05414   -0.19194    0.38652   -0.16381   -0.02070    9.81651
372668.352700    0.16696    0.10651    0.39809   -0.17053   -0.02375    9.82724
372668.362700    0.10348    0.00722    0.40090   -0.17577   -0.01045    9.81216
372668.372700    0.04091    0.26923    0.29920   -0.16898   -0.01595    9.82575
372668.382700    0.11356   -0.08955    0.15149   -0.16719   -0.01604    9.83680
372668.392700    0.22368   -0.00218    0.46696   -0.17017   -0.01440    9.81433
372668.402700    0.09442    0.08927    0.32704   -0.17332   -0.02831    9.82443
372668.412700    0.10583    0.22448    0.36795   -0.15856   -0.02189    9.83113
372668.422700    0.07781    0.14370    0.28969   -0.15961   -0.01894    9.81328
372668.432700    0.12261    0.24133    0.32647   -0.15824   -0.01711    9.83501
372668.442700    0.03415   -0.22259    0.14736   -0.15344   -0.01107    9.81962
372668.452700    0.20947    0.10995    0.31266   -0.16316   -0.00474    9.81923
372668.462700    0.20369    0.09311    0.36050   -0.16811   -0.00776    9.82782
372668.472700    0.17492   -0.08875    0.35575   -0.16669   -0.00676    9.82816
372668.482700    0.05031    0.00476    0.24179   -0.16605   -0.01384    9.81860
372668.492700    0.01421    0.09752    0.17750   -0.17814   -0.01211    9.83322
372668.502700    0.03655    0.14868    0.28172   -0.15724   -0.00786    9.82352
372668.512700   -0.00040   -0.03936    0.28768   -0.16744   -0.01040    9.81286
372668.522700    0.02819    0.08445    0.24775   -0.15774   -0.03069    9.83084
372668.532700    0.04595   -0.15218    0.14628   -0.16976   -0.00728    9.82140
372668.542700    0.04183    0.13379    0.17848   -0.16436   -0.01929    9.82257
372668.552700    0.05775   -0.11052    0.34062   -0.16899   -0.01824    9.83290
372668.562700    0.08904    0.05403    0.14748   -0.16372   -0.01204    9.82071
372668.572700    0.25084    0.11436    0.35907   -0.17579   -0.02544    9.81764
372668.582700   -0.19412    0.17131    0.34716   -0.16877   -0.02393    9.83187
372668.592700   -0.01891    0.35586    0.28092   -0.17533   -0.01256    9.82109
372668.602700    0.19217    0.11264    0.18260   -0.16927   -0.01896    9.81757
372668.612700    0.01713    0.22569    0.28894   -0.17367   -0.03282    9.83374
372668.622700   -0.02429    0.04085    0.23010   -0.17290   -0.01634    9.81969
372668.632700    0.12983    0.18959    0.20185   -0.16554   -0.01687    9.81399
372668.642700    0.10605    0.20901    0.34761   -0.16656   -0.01674    9.83430
372668.652700    0.04251    0.25709    0.49641   -0.16632   -0.00975    9.82534
372668.662700    0.01266    0.26717    0.13573   -0.15412   -0.02242    9.81972
372668.672700   -0.03065    0.04549    0.54305   -0.15847   -0.00923    9.83779
372668.682700    0.27869    0.07448    0.27829   -0.17443   -0.01160    9.81930
372668.692700    0.01134    0.09694    0.34234   -0.16447   -0.02419    9.80655
372668.702700    0.20071    0.03295    0.07695   -0.17014   -0.02296    9.83329
372668.712700    0.20392    0.10302    0.21601   -0.16442   -0.01610    9.82182
372668.722700    0.25898    0.01186    0.35220   -0.16872   -0.02298    9.82117
372668.732700   -0.02355    0.03908    0.21033   -0.15573   -0.01136    9.83317
372668.742700    0.11476    0.02750    0.33014   -0.16307   -0.01345    9.81858
372668.752700    0.15796    0.04309    0.18272   -0.17474   -0.01416    9.81326
372668.762700    0.24305    0.30143    0.40858   -0.16421   -0.01089    9.82712
372668.772700    0.11872    0.10256    0.41453   -0.15790   -0.00617    9.82493
372668.782700   -0.01283    0.03822    0.22918   -0.16184   -0.02527    9.82296
372668.792700    0.17481    0.01106    0.34572   -0.15907   -0.01186    9.83461
372668.802700   -0.01054    0.10325    0.25869   -0.16999   -0.00469    9.81888
372668.812700    0.23978    0.01891    0.23892   -0.16400   -0.01511    9.82324
372668.822700   -0.04217    0.04206    0.29037   -0.15982   -0.01348    9.83070
372668.832700    0.22185    0.14141    0.28682   -0.17413   -0.00376    9.81282
372668.842700    0.10760    0.24540    0.40949   -0.16415   -0.01624    9.82396
372668.852700    0.08932   -0.03684    0.29078   -0.16322   -0.01723    9.82504
372668.862700    0.05867    0.04773    0.49910   -0.18060   -0.00667    9.81250
372668.872700    0.18793    0.03718    0.34922   -0.17611   -0.01576    9.82718
372668.882700    0.05987   -0.01364    0.44456   -0.15976   -0.01759    9.83109
372668.892700    0.07809    0.07110    0.14828   -0.15860   -0.01140    9.81179
372668.902700    0.11769    0.13717    0.18054   -0.16436   -0.01375    9.82501
372668.912700    0.12147    0.05964    0.29949   -0.16893   -0.00476    9.82601
372668.922700    0.06944    0.10262    0.32624   -0.16613   -0.02035    9.81081
372668.932700    0.24958    0.11408    0.19624   -0.15666   -0.03244    9.83621
372668.942700    0.07609    0.10462    0.21383   -0.15996   -0.00781    9.82923
372668.952700   -0.03701    0.07804    0.27210   -0.16816   -0.01497    9.81326
372668.962700    0.27502    0.11253    0.32126   -0.16640   -0.02322    9.82795
372668.972700    0.06176    0.11259    0.22363   -0.16162   -0.00789    9.82817
372668.982700    0.07557    0.25279    0.20059   -0.17254   -0.00979    9.81643
372668.992700    0.10210    0.26316    0.38314   -0.16273   -0.02020    9.82934
372669.002700   -0.01243    0.29444    0.20936   -0.16113   -0.00960    9.82711
372669.012700    0.09672    0.15080    0.37105   -0.17449   -0.00930    9.81964
372669.022700    0.08692    0.12038    0.28493   -0.15470   -0.02398    9.82793
372669.032700    0.21618    0.06566    0.26012   -0.16644   -0.01500    9.82609
372669.042700    0.27359    0.05374    0.28201   -0.17443   -0.02516    9.80729
372669.052700    0.01719    0.05403    0.11958   -0.16657   -0.03099    9.83478
372669.062700    0.27571    0.23543    0.29822   -0.16239   -0.01495    9.82822
372669.072700   -0.00917    0.14719    0.24053   -0.16967   -0.01870    9.81543
372669.082700    0.21394    0.22013    0.26316   -0.16601   -0.02667    9.83867
372669.092700    0.12725    0.01656    0.29335   -0.16090   -0.01300    9.82749
372669.102700    0.12066    0.01919    0.17103   -0.17230   -0.01903    9.81366
372669.112700    0.06520    0.09225    0.14301   -0.16817   -0.02589    9.82903
372669.122700    0.05351    0.22196    0.17664   -0.16242   -0.01518    9.81825
372669.132700    0.14668   -0.00074    0.22431   -0.16728   -0.02273    9.81831
372669.142700    0.27370    0.02578    0.26946   -0.16221   -0.01832    9.83111
372669.152700    0.11935    0.05053    0.42806   -0.16948   -0.00940    9.81108
372669.162700   -0.13757    0.07769    0.21887   -0.17401   -0.01643    9.82826
372669.172700   -0.03707    0.06990    0.28121   -0.17933   -0.00084    9.82777
372669.182700    0.24185    0.08549    0.23130   -0.16556   -0.00502    9.81959
372669.192700    0.10239    0.16696    0.22271   -0.16958   -0.02727    9.81871
372669.202700    0.18312    0.06474    0.29885   -0.16676   -0.02021    9.82506
372669.212700    0.20661    0.06079    0.33925   -0.17755   -0.00551    9.81213
372669.222700    0.10984    0.05139    0.28705   -0.17370   -0.01939    9.81900
372669.232700   -0.10153    0.16301    0.19160   -0.17720   -0.01428    9.83394
372669.242700    0.13287    0.04177    0.13866   -0.16360   -0.01064    9.81928
372669.252700    0.11677    0.18312    0.35128   -0.16240   -0.01337    9.83213
372669.262700    0.06560    0.23102    0.32303   -0.16861   -0.01245    9.82928
372669.272700   -0.07723    0.07586    0.28287   -0.17364   -0.02021    9.82151
372669.282700    0.13379    0.09683    0.32286   -0.16985   -0.01780    9.83467
372669.292700    0.17957   -0.05243    0.24425   -0.17259   -0.00575    9.82888
372669.302700    0.20861    0.23445    0.36010   -0.17463   -0.00729    9.81356
372669.312700   -0.05518    0.15774    0.13602   -0.16638   -0.01555    9.83857
372669.322700    0.15155    0.11064    0.37586   -0.16756   -0.00364    9.83527
372669.332700    0.04091    0.00670    0.41024   -0.16957   -0.00905    9.81678
372669.342700    0.07345    0.05936    0.30928   -0.17045   -0.02789    9.82977
372669.352700    0.07340    0.14639    0.28029   -0.16836   -0.00453    9.81923
372669.362700   -0.01312    0.11413    0.25583   -0.16368   -0.02594    9.81548
372669.372700    0.06589    0.04761    0.18965   -0.16017   -0.01993    9.83253
372669.382700    0.09757   -0.09918    0.23451   -0.16764   -0.01171    9.82785
372669.392700    0.02051    0.09121    0.43493   -0.17511   -0.01590    9.81862
372669.402700   -0.01822    0.13654    0.42405   -0.16949   -0.02106    9.83541
372669.412700    0.21497    0.05248    0.15676   -0.16232   -0.01367    9.82501
372669.422700    0.08382    0.03260    0.18449   -0.17297   -0.02181    9.80584
372669.432700   -0.15504    0.08079    0.33845   -0.15845   -0.01974    9.82932
372669.442700    0.03037   -0.00762    0.17280   -0.16881   -0.01047    9.82427
372669.452700    0.10852    0.23176    0.36990   -0.16899   -0.01304    9.82180
372669.462700    0.04142    0.04234    0.39408   -0.16112   -0.02822    9.82512
372669.472700    0.17131   -0.12072    0.27605   -0.16569   -0.01169    9.80788
372669.482700    0.12233   -0.00819    0.36463   -0.16851   -0.01413    9.82038
372669.492700    0.02962   -0.16215    0.31375   -0.16452   -0.01787    9.83609
372669.502700   -0.01702   -0.04572    0.32303   -0.16737   -0.00631    9.82424
372669.512700    0.16455    0.13619    0.53600   -0.17017   -0.03639    9.82877
372669.522700    0.17693    0.15968    0.27960   -0.16880   -0.01947    9.83719
372669.532700    0.12399   -0.16415    0.18197   -0.17847    0.00022    9.81137
372669.542700    0.19194    0.17567    0.26499   -0.16267   -0.02255    9.83007
372669.552700    0.11476    0.08967    0.27513   -0.17156   -0.01544    9.82967
372669.562700    0.16094    0.14215    0.26144   -0.16924   -0.01094    9.82286
372669.572700    0.14565    0.12193    0.21560   -0.17705   -0.01716    9.83005
372669.582700    0.00584    0.00871    0.13573   -0.16744   -0.01550    9.83359
372669.592700    0.18787   -0.08130    0.28579   -0.17540   -0.00867    9.80644
372669.602700    0.06721    0.03380    0.31931   -0.16153   -0.03213    9.82159
372669.612700    0.10525   -0.06268    0.22798   -0.17047   -0.01864    9.82434
372669.622700   -0.09746    0.06606    0.38251   -0.16925   -0.01411    9.81076
372669.632700    0.11969    0.15539    0.29565   -0.17163   -0.01827    9.82506
372669.642700    0.10479    0.10766    0.30287   -0.18131   -0.00140    9.83278
372669.652700    0.02744    0.20237    0.44158   -0.17521   -0.01321    9.82288
372669.662700   -0.03358    0.13321    0.41843   -0.16886   -0.02013    9.83327
372669.672700    0.09093    0.07821    0.33547   -0.16888   -0.01060    9.83141
372669.682700    0.06864   -0.00223    0.42009   -0.17441   -0.00899    9.81179
372669.692700    0.06612   -0.04337    0.34750   -0.16778   -0.00830    9.81855
372669.702700    0.15292    0.05432    0.30321   -0.16511   -0.01405    9.82750
372669.712700    0.17011    0.14542    0.34143   -0.16796   -0.00919    9.82069
372669.722700   -0.00464    0.04876    0.25789   -0.16671   -0.02039    9.83362
372669.732700    0.19532    0.33381    0.10250   -0.17496   -0.01342    9.82288
372669.742700    0.23852    0.08852    0.34721   -0.16990   -0.01330    9.81538
372669.752700    0.14903    0.09861    0.37609   -0.16498   -0.02668    9.83510
372669.762700    0.10525    0.23950    0.24110   -0.16384   -0.00370    9.82243
372669.772700    0.10926    0.20575    0.27639   -0.17650   -0.02210    9.81867
372669.782700    0.05214    0.07993    0.23892   -0.17574   -0.01971    9.82721
372669.792700   -0.00223    0.11740    0.39970   -0.16421   -0.00047    9.82275
372669.802700   -0.08411    0.22059    0.22105   -0.17411   -0.03074    9.82801
372669.812700    0.10583   -0.04979    0.39609   -0.17177   -0.02306    9.82296
372669.822700    0.16931    0.04337    0.40130   -0.16366   -0.01582    9.81683
372669.832700    0.09683   -0.04899    0.40680   -0.17292   -0.01173    9.81965
372669.842700   -0.04790    0.23571    0.43247   -0.16444   -0.01823    9.82897
372669.852700   -0.04097    0.02848    0.32974   -0.16816   -0.00668    9.82210
372669.862700    0.02131    0.19183    0.36268   -0.17829   -0.02561    9.81586
372669.872700    0.04549    0.00097    0.41207   -0.16627   -0.02440    9.83009
372669.882700    0.08079    0.15046    0.10382   -0.16691   -0.00661    9.82424
372669.892700   -0.02888    0.09047    0.31524   -0.16849   -0.02219    9.82045
372669.902700    0.09717    0.26224    0.28957   -0.15664   -0.01679    9.82894
372669.912700   -0.06394    0.10978    0.30172   -0.16512   -0.01401    9.81111
372669.922700    0.18117    0.11436    0.11150   -0.16126   -0.01854    9.82398
372669.932700    0.21280   -0.14284    0.33564   -0.15830   -0.01560    9.83428
372669.942700    0.13287    0.09104    0.29387   -0.16477   -0.00719    9.82317
372669.952700    0.04526   -0.04503    0.24139   -0.16148   -0.02759    9.82476
372669.962700    0.13006    0.15458    0.15613   -0.17337   -0.02406    9.83759
372669.972700    0.17172    0.07907    0.37500   -0.17139   -0.00991    9.81536
372669.982700    0.20162    0.12903    0.41110   -0.17638   -0.03129    9.82268
372669.992700    0.10393    0.13934    0.34956   -0.17170   -0.00824    9.82783
372670.002700    0.03375   -0.08348    0.15596   -0.17288   -0.01124    9.81752
372670.012700    0.14994    0.16742    0.29358   -0.17658   -0.01449    9.81149
372670.022700    0.18902    0.15808    0.17510   -0.16590   -0.01647    9.82967
372670.032700   -0.06715   -0.06371    0.29049   -0.17156   -0.00227    9.82136
372670.042700   -0.02538   -0.04183    0.27089   -0.16596   -0.02006    9.82685
372670.052700    0.04595    0.04715    0.46931   -0.15545   -0.01231    9.82819
372670.062700    0.11035    0.24041    0.38411   -0.17111   -0.01352    9.82002
372670.072700    0.23709    0.08577    0.20260   -0.16813   -0.02288    9.83579
372670.082700    0.08451    0.12634    0.13894   -0.16746   -0.01858    9.83610
372670.092700    0.06388    0.03266    0.41814   -0.17305   -0.01207    9.81645
372670.102700    0.08359    0.01089    0.37070   -0.16192   -0.02380    9.82437
372670.112700    0.04177    0.09786    0.09316   -0.16270   -0.00067    9.81955
372670.122700    0.21360    0.24127    0.22787   -0.17314   -0.01855    9.81722
372670.132700    0.06113    0.04773    0.40015   -0.16740   -0.02001    9.83148
372670.142700    0.07271    0.18266    0.25560   -0.16280   -0.00862    9.82674
372670.152700    0.24173    0.02819    0.04887   -0.17272   -0.01134    9.81217
372670.162700    0.13866    0.09626    0.16455   -0.16531   -0.02843    9.83583
372670.172700    0.09299   -0.03512    0.35919   -0.16499   -0.01344    9.82679
372670.182700    0.01627   -0.01879    0.18421   -0.17288   -0.01834    9.82363
372670.192700    0.04922    0.01157    0.25646   -0.16944   -0.01280    9.82928
372670.202700   -0.02017    0.21177    0.31209   -0.16653   -0.01279    9.82215
372670.212700    0.15562    0.09276    0.40371   -0.17543   -0.01792    9.80938
372670.222700    0.15269   -0.00733    0.37993   -0.17116   -0.02198    9.83329
372670.232700    0.03558    0.11631    0.47000   -0.16256   -0.01613    9.82752
372670.242700    0.14977   -0.01696    0.28367   -0.17024   -0.00590    9.81497
372670.252700    0.21979    0.17991    0.32968   -0.17030   -0.02542    9.82832
372670.262700    0.05099    0.11872    0.25044   -0.17728   -0.00431    9.81710
372670.272700    0.05821   -0.06887    0.29628   -0.17081   -0.01314    9.81753
372670.282700    0.06990    0.11528    0.26855   -0.17476   -0.01169    9.84211
372670.292700   -0.03845   -0.03478    0.12399   -0.17611   -0.00524    9.82888
372670.302700    0.00831    0.06457    0.16249   -0.16879   -0.02216    9.82045
372670.312700    0.13092    0.20151    0.30344   -0.15029   -0.01767    9.83500
372670.322700    0.11998    0.30504    0.21308   -0.15994   -0.01434    9.83463
372670.332700    0.22781   -0.00407    0.35122   -0.16326   -0.01895    9.80294
372670.342700    0.03524    0.20403    0.28883   -0.16414   -0.01689    9.82895
372670.352700    0.08778    0.13470    0.31175   -0.17718   -0.00496    9.82317
372670.362700    0.21784   -0.03667    0.18673   -0.17467   -0.01961    9.81152
372670.372700    0.00023    0.03186    0.40462   -0.16706   -0.01798    9.83218
372670.382700    0.07145    0.07998    0.06715   -0.16852   -0.01651    9.82183
372670.392700    0.15172   -0.00848    0.33667   -0.16469   -0.02101    9.81615
372670.402700    0.30556    0.00877    0.13728   -0.16056   -0.01830    9.82861
372670.412700    0.18466    0.20288    0.32068   -0.17463   -0.01274    9.81218
372670.422700    0.09557    0.06910    0.31816   -0.17882   -0.02076    9.82117
372670.432700    0.14324    0.02429    0.28442   -0.17037   -0.02846    9.84511
372670.442700    0.12009    0.09236    0.25262   -0.16103   -0.00660    9.81460
372670.452700   -0.07781    0.00321    0.21119   -0.16960   -0.01360    9.81431
372670.462700   -0.05122   -0.02017    0.04303   -0.16358   -0.02556    9.82724
372670.472700    0.03696   -0.03999    0.21337   -0.17155   -0.02179    9.81653
372670.482700    0.23709    0.11522    0.28253   -0.16789   -0.02059    9.81473
372670.492700    0.03621    0.04228    0.14742   -0.16538   -0.02133    9.83220
372670.502700    0.03592   -0.07964    0.32326   -0.16989   -0.00482    9.81496
372670.512700    0.13321    0.25646    0.32389   -0.17554   -0.01622    9.81399
372670.522700   -0.01077    0.00160    0.17630   -0.16674   -0.01758    9.83360
372670.532700    0.06887    0.00837    0.24379   -0.16819   -0.00598    9.82109
372670.542700   -0.00401    0.10187    0.35793   -0.17347   -0.01953    9.81517
372670.552700    0.06142    0.21503    0.40714   -0.16554   -0.01426    9.83080
372670.562700    0.21658    0.01255    0.27685   -0.17891   -0.01179    9.82082
372670.572700    0.05386    0.08973    0.19985   -0.17711   -0.02084    9.81733
372670.582700    0.21085    0.04051    0.18403   -0.16598   -0.01753    9.82798
372670.592700    0.23170    0.03529    0.29742   -0.16600   -0.01442    9.81762
372670.602700    0.15183    0.05598    0.27932   -0.17122   -0.01689    9.82941
372670.612700    0.14811    0.14358    0.21148   -0.16921   -0.00998    9.83291
372670.622700    0.01524    0.21222    0.26923   -0.16495   -0.00749    9.81256
372670.632700    0.04051    0.04332    0.40405   -0.16415   -0.00736    9.81648
372670.642700    0.09133    0.11574    0.26711   -0.16390   -0.02137    9.83764
372670.652700    0.21847   -0.00837    0.24821   -0.17162   -0.00793    9.81792
372670.662700    0.07746    0.05626    0.26007   -0.16848   -0.01744    9.81515
372670.672700    0.12066    0.12462    0.21595   -0.16574   -0.02621    9.82841
372670.682700    0.14089    0.01530    0.38898   -0.16237   -0.00134    9.82284
372670.692700    0.03873    0.06245    0.45252   -0.17442   -0.01942    9.81981
372670.702700    0.03157    0.08783    0.23571   -0.16789   -0.01420    9.82938
372670.712700   -0.04217    0.08125    0.11052   -0.16617   -0.00848    9.82255
372670.722700   -0.08193    0.07334    0.20122   -0.17583   -0.00141    9.81003
372670.732700    0.05924    0.18134    0.17704   -0.16543   -0.02172    9.82908
372670.742700   -0.03065    0.14696    0.27943   -0.17522   -0.00959    9.82258
372670.752700   -0.02189    0.03845    0.44891   -0.17170   -0.00676    9.81862
372670.762700    0.11201   -0.06440    0.33919   -0.15667   -0.01553    9.82509
372670.772700    0.06635    0.01467    0.27044   -0.16916   -0.01537    9.82083
372670.782700    0.23331   -0.18484    0.17429   -0.16563   -0.02229    9.81412
372670.792700    0.14593    0.24798    0.38829   -0.17280   -0.01944    9.81838
372670.802700   -0.01942    0.18570    0.27387   -0.17654   -0.01435    9.82762
372670.812700    0.13167   -0.06417    0.36686   -0.17187   -0.01698    9.81907
372670.822700   -0.02183    0.00567    0.38262   -0.16538   -0.01284    9.83828
372670.832700   -0.08153    0.09798    0.39992   -0.17203   -0.01541    9.81514
372670.842700   -0.00275    0.04091    0.25915   -0.17585   -0.02338    9.80843
372670.852700    0.01736    0.07460    0.27261   -0.16190   -0.02354    9.82838
372670.862700    0.11224    0.14232    0.18885   -0.17317   -0.00761    9.81971
372670.872700    0.10663    0.11224    0.28522   -0.17919   -0.02494    9.82664
372670.882700    0.22695    0.09775    0.38898   -0.16984   -0.02178    9.82873
372670.892700    0.04589    0.04698    0.40565   -0.16955   -0.01255    9.82331
372670.902700    0.12382    0.02028    0.35489   -0.17055   -0.01250    9.81298
372670.912700    0.05392    0.14215    0.41729   -0.17024   -0.02657    9.83554
372670.922700    0.15986    0.08623    0.36274   -0.17094   -0.01621    9.82085
372670.932700    0.12387    0.16232    0.23486   -0.17114   -0.00563    9.81434
372670.942700    0.12645    0.07638    0.55073   -0.16702   -0.01959    9.83157
372670.952700    0.25634    0.10073    0.09757   -0.16891   -0.00998    9.82008
372670.962700    0.00309    0.03638    0.37724   -0.17189   -0.02847    9.82237
372670.972700    0.24843   -0.00269    0.38491   -0.17330   -0.01331    9.82653
372670.982700    0.04807   -0.01438    0.38170   -0.16916   -0.01391    9.81440
372670.992700    0.30189   -0.03123    0.21343   -0.16843   -0.01539    9.82939
372671.002700    0.00928    0.20254    0.33495   -0.17242   -0.01776    9.82905
372671.012700    0.02991    0.18415    0.25520   -0.17698   -0.01233    9.81762
372671.022700   -0.01203    0.07443    0.30487   -0.17027   -0.01016    9.81865
372671.032700    0.10164    0.15321    0.24110   -0.17683   -0.02068    9.84514
372671.042700    0.13035    0.17928    0.32355   -0.17073   -0.00282    9.81396
372671.052700    0.04882    0.15905    0.20833   -0.17247   -0.01811    9.80589
372671.062700    0.23440    0.22317    0.28969   -0.16769   -0.01924    9.82229
372671.072700    0.04624    0.23910    0.23417   -0.17385   -0.01262    9.82011
372671.082700    0.00069    0.10239    0.41282   -0.16924   -0.02676    9.81665
372671.092700    0.13212    0.13997    0.24122   -0.17013   -0.01962    9.84084
372671.102700    0.05288    0.03019    0.31243   -0.16200   -0.01281    9.82544
372671.112700    0.12966    0.02292    0.20558   -0.16264   -0.01628    9.81870
372671.122700    0.13493    0.08663    0.05518   -0.17440   -0.01758    9.82835
372671.132700   -0.09545    0.03203    0.38130   -0.16959   -0.00868    9.80973
372671.142700    0.20707    0.09998    0.32704   -0.15993   -0.02621    9.81734
372671.152700    0.11963    0.07024    0.30539   -0.16539   -0.01229    9.83649
372671.162700    0.13344    0.05323    0.15138   -0.17137   -0.00700    9.82006
372671.172700   -0.04251    0.04813    0.15653   -0.16714   -0.01877    9.82620
372671.182700    0.09975    0.13568    0.16455   -0.16050   -0.02199    9.84013
372671.192700    0.22580   -0.01427    0.28327   -0.16784   -0.00806    9.81186
372671.202700    0.05959    0.17515    0.31192   -0.16298   -0.02358    9.82518
372671.212700    0.17813   -0.10044    0.23417   -0.17077   -0.02271    9.83266
372671.222700    0.18581    0.04721    0.25863   -0.17517   -0.00842    9.81472
372671.232700    0.08004    0.19400    0.31730   -0.15759   -0.01420    9.81938
372671.242700    0.08881    0.16049    0.11322   -0.17481   -0.01937    9.82480
372671.252700    0.11253    0.08520    0.09299   -0.16643   -0.02040    9.82622
372671.262700    0.03650    0.14759    0.25342   -0.16613   -0.01244    9.82509
372671.272700   -0.04452    0.13098    0.30905   -0.16683   -0.01811    9.82121
372671.282700    0.15315   -0.01071    0.24351   -0.16675   -0.00728    9.82469
372671.292700    0.13436    0.06096    0.09018   -0.16914   -0.02306    9.82304
372671.302700    0.11058   -0.09293    0.11969   -0.16489   -0.01731    9.82976
372671.312700   -0.07236    0.22466    0.25474   -0.17552   -0.01439    9.82333
372671.322700    0.04389    0.08004    0.39213   -0.16647   -0.01215    9.82223
372671.332700    0.21715    0.05231    0.31266   -0.16708   -0.01405    9.83437
372671.342700    0.20638    0.17464    0.34097   -0.17104   -0.00896    9.82863
372671.352700    0.06732    0.00023    0.25050   -0.17141   -0.02657    9.82664
372671.362700    0.20821   -0.02911    0.37237   -0.16782   -0.01132    9.82936
372671.372700    0.13871    0.21377    0.22809   -0.16629   -0.01803    9.81265
372671.382700   -0.00710    0.12920    0.29118   -0.17947   -0.02439    9.82449
372671.392700    0.06555    0.28436    0.26110   -0.16831   -0.02034    9.83371
372671.402700   -0.04767    0.11356    0.41247   -0.17586   -0.00378    9.81612
372671.412700    0.06291    0.12955    0.36068   -0.17714   -0.03076    9.82704
372671.422700    0.18444    0.04251    0.37036   -0.16906   -0.02311    9.83338
372671.432700   -0.01742   -0.02097    0.24586   -0.16438   -0.01120    9.81223
372671.442700   -0.06744    0.21767    0.43109   -0.17309   -0.01709    9.83226
372671.452700    0.12221   -0.12307    0.28625   -0.16489   -0.01861    9.83013
372671.462700    0.05924    0.00642    0.25502   -0.17430   -0.01778    9.81730
372671.472700    0.05667    0.14565    0.39379   -0.17028   -0.02147    9.83337
372671.482700    0.13791   -0.01467    0.20472   -0.17190   -0.00557    9.82611
372671.492700    0.14673    0.07145    0.44914   -0.16549   -0.00974    9.80938
372671.502700   -0.00435    0.04698    0.34188   -0.16054   -0.01908    9.82442
372671.512700    0.04784    0.18111    0.29920   -0.16220   -0.01180    9.81651
372671.522700    0.13098    0.08279    0.27026   -0.16394   -0.01963    9.82122
372671.532700    0.17693   -0.03747    0.29748   -0.15906   -0.02244    9.81660
372671.542700    0.22288    0.04154    0.37139   -0.16751   -0.00650    9.82967
372671.552700   -0.02126    0.11809    0.29576   -0.17211   -0.02170    9.80734
372671.562700    0.03552    0.19091    0.36864   -0.16755   -0.02387    9.83088
372671.572700    0.04360   -0.08296    0.11425   -0.16735   -0.01497    9.82048
372671.582700    0.03088    0.04475    0.43298   -0.16745   -0.02085    9.82123
372671.592700    0.22523    0.08915    0.38010   -0.17098   -0.01644    9.82798
372671.602700    0.34177    0.02676    0.28167   -0.16995   -0.00210    9.81253
372671.612700   -0.15642   -0.08938    0.24242   -0.16140   -0.03154    9.82096
372671.622700    0.15298   -0.03518    0.43167   -0.16813   -0.01175    9.82472
372671.632700    0.02464    0.01392    0.38537   -0.16785   -0.01121    9.81082
372671.642700    0.12405    0.16507    0.27072   -0.16998   -0.02145    9.81340
372671.652700   -0.00928   -0.02023    0.30636   -0.16142   -0.02140    9.83513
372671.662700    0.16278    0.19452    0.17630   -0.17840   -0.00727    9.82399
372671.672700    0.08686   -0.09528    0.24385   -0.17147   -0.01382    9.82582
372671.682700    0.10978    0.07815    0.33856   -0.16820   -0.01379    9.83366
372671.692700    0.15160    0.15229    0.18810   -0.17488   -0.01183    9.81761
372671.702700    0.24219   -0.00235    0.36790   -0.16663   -0.01882    9.82764
372671.712700    0.02939    0.11396    0.15659   -0.16229   -0.01498    9.82082
372671.722700    0.14227   -0.11488    0.17223   -0.18466   -0.00914    9.81903
372671.732700    0.12920    0.06022    0.17034   -0.15734   -0.03098    9.82380
372671.742700    0.18696    0.25124    0.32808   -0.16138   -0.01137    9.82151
372671.752700    0.02888    0.06956    0.22586   -0.17134   -0.01199    9.80904
372671.762700    0.07162   -0.01415    0.16988   -0.16286   -0.02483    9.83267
372671.772700   -0.00550    0.07448    0.37065   -0.17275   -0.01367    9.82011
372671.782700    0.24036    0.13596    0.18747   -0.17205   -0.01759    9.81088
372671.792700    0.05363    0.06698    0.36463   -0.18008   -0.02904    9.83273
372671.802700    0.13722    0.22254    0.40548   -0.17382   -0.00414    9.83430
372671.812700    0.22317    0.27026    0.56923   -0.16398   -0.00967    9.81721
372671.822700    0.18237    0.15063    0.33403   -0.15995   -0.01947    9.82834
372671.832700    0.18197    0.09574    0.33317   -0.16763   -0.00584    9.81969
372671.842700    0.13155   -0.19297    0.20741   -0.17221   -0.01116    9.81902
372671.852700    0.09597    0.06314    0.13986   -0.17191   -0.02040    9.83408
372671.862700   -0.00814    0.11098    0.16461   -0.17477   -0.01156    9.82402
372671.872700    0.14353    0.08422    0.25852   -0.16718   -0.02046    9.82301
372671.882700    0.06337    0.00464    0.16410   -0.17294   -0.02072    9.83658
372671.892700    0.10875    0.02647    0.42147   -0.16059   -0.00908    9.81257
372671.902700    0.04016    0.11614    0.47945   -0.16585   -0.01703    9.81656
372671.912700    0.07941    0.22185    0.22019   -0.16594   -0.01147    9.82579
372671.922700    0.09500    0.16410    0.43533   -0.16836   -0.00972    9.81794
372671.932700    0.15287   -0.01742    0.37861   -0.16973   -0.02479    9.82697
372671.942700    0.10348    0.01117    0.13997   -0.17024   -0.01146    9.82508
372671.952700    0.10227    0.18226    0.20054   -0.17144   -0.02320    9.81876
372671.962700    0.14043    0.14192    0.30235   -0.16924   -0.02486    9.82199
372671.972700    0.26969   -0.04985    0.20180   -0.17007   -0.02063    9.82801
372671.982700    0.05632    0.07809    0.41041   -0.17172   -0.00819    9.81009
