Time              Gyro_X     Gyro_Y     Gyro_Z    Accel_X    Accel_Y    Accel_Z
373096.002700    0.09242    0.32023    0.36285   -0.70094    0.03471    9.78482
373096.012700    0.13098    0.17527    0.28121   -0.69491    0.02656    9.79487
373096.022700    0.07019    0.14559    0.18501   -0.68829    0.02818    9.78771
373096.032700   -0.04211    0.02332    0.17561   -0.69166    0.03606    9.79658
373096.042700    0.07202    0.20323    0.36434   -0.68515    0.01961    9.79348
373096.052700    0.03581    0.06211    0.37832   -0.69210    0.03053    9.77772
373096.062700    0.21177   -0.07059    0.32555   -0.68896    0.01824    9.82133
373096.072700    0.03696    0.06010   -0.10451   -0.68795    0.04538    9.79185
373096.082700    0.00487    0.02951    0.39729   -0.69347    0.03191    9.78805
373096.092700    0.00974    0.23159    0.24305   -0.68682    0.00803    9.81604
373096.102700    0.18604    0.27215    0.17040   -0.68369    0.04145    9.78972
373096.112700    0.05117   -0.01261    0.18472   -0.69650    0.03369    9.78947
373096.122700    0.13361    0.15086    0.21664   -0.69657    0.02205    9.79383
373096.132700    0.11877    0.16031    0.33764   -0.68350    0.02965    9.79126
373096.142700   -0.13843    0.07242    0.40840   -0.69135    0.02558    9.78703
373096.152700    0.08514    0.03890    0.35151   -0.69486    0.03779    9.77767
373096.162700    0.16656    0.08944    0.27067   -0.69343    0.03344    9.79659
373096.172700    0.15069    0.10067    0.36578   -0.69232    0.03279    9.80231
373096.182700    0.02521   -0.01186    0.20008   -0.69377    0.03817    9.79014
373096.192700    0.18558    0.06280    0.28338   -0.69333    0.02186    9.79955
373096.202700    0.21509    0.07403    0.30407   -0.68378    0.03386    9.79301
373096.212700    0.05042    0.20615    0.30682   -0.69213    0.02270    9.80309
373096.222700    0.01874    0.14301    0.26024   -0.69975    0.03124    9.79376
373096.232700   -0.01782    0.14341    0.24775   -0.68948    0.03470    9.79264
373096.242700    0.13052    0.10050    0.21675   -0.69136    0.03149    9.80766
373096.252700    0.15223    0.18529    0.24064   -0.68301    0.04405    9.78150
373096.262700    0.19148    0.10073    0.28780   -0.68450    0.03478    9.78480
373096.272700    0.08978    0.05225    0.18369   -0.68304    0.03563    9.80976
373096.282700    0.10376    0.14948    0.35466   -0.68304    0.03098    9.78484
373096.292700   -0.12215    0.01352    0.29553   -0.68206    0.02985    9.79446
373096.302700    0.12542   -0.02086    0.21904   -0.69088    0.03419    9.81157
373096.312700    0.09752    0.09672    0.23377   -0.67384    0.03315    9.79335
373096.322700    0.26625    0.10113    0.15584   -0.68581    0.02915    9.79484
373096.332700    0.19607   -0.02773    0.27496   -0.68320    0.02667    9.79950
373096.342700    0.01066   -0.00533    0.13619   -0.68914    0.02856    9.81375
373096.352700    0.04756    0.13384    0.33226   -0.68489    0.03618    9.79513
373096.362700    0.18386    0.00619    0.11952   -0.68105    0.03551    9.78230
373096.372700    0.09110   -0.05581    0.28476   -0.67907    0.01561    9.80956
373096.382700   -0.08062    0.10147    0.38245   -0.68343    0.03433    9.79372
373096.392700    0.04847    0.03163    0.38010   -0.70012    0.03844    9.78194
373096.402700    0.04097   -0.04051    0.32670   -0.68846    0.02894    9.79129
373096.412700    0.10434    0.31828    0.17109   -0.68293    0.03032    9.79873
373096.422700    0.19297   -0.06188    0.28665   -0.68609    0.04085    9.80509
373096.432700    0.19618   -0.03432    0.26327   -0.68822    0.03528    9.79943
373096.442700   -0.01914    0.15544    0.17939   -0.68728    0.02704    9.78522
373096.452700    0.24036    0.10875    0.23405   -0.68024    0.02570    9.80377
373096.462700    0.04635    0.00882    0.47074   -0.69478    0.03681    9.79444
373096.472700    0.09202    0.02120    0.22775   -0.69410    0.02813    9.79058
373096.482700    0.15269    0.10113    0.14582   -0.68138    0.03449    9.79942
373096.492700   -0.09849   -0.01833    0.34332   -0.69768    0.04760    9.78258
373096.502700    0.00676    0.17321    0.26648   -0.68481    0.02864    9.80625
373096.512700    0.10302    0.12342    0.33226   -0.68931    0.02989    9.79163
373096.522700   -0.16450    0.05810    0.30166   -0.67926    0.03744    9.80510
373096.532700    0.04091    0.09368    0.38887   -0.68417    0.03588    9.80547
373096.542700    0.01621    0.04188    0.33432   -0.69042    0.04031    9.78869
373096.552700    0.09379    0.13997    0.26505   -0.67315    0.03667    9.80366
373096.562700    0.16169    0.16186    0.35833   -0.68769    0.03521    9.79799
373096.572700    0.02194   -0.06142    0.15808   -0.69054    0.03239    9.79981
373096.582700    0.17183    0.04177    0.40565   -0.68573    0.03086    9.80945
373096.592700    0.05225    0.19945    0.05558   -0.68845    0.03926    9.80188
373096.602700    0.23910   -0.05644    0.24007   -0.69470    0.03420    9.79375
373096.612700   -0.01782    0.13367    0.27926   -0.68790    0.02411    9.80236
373096.622700    0.03541    0.14891    0.18484   -0.68381    0.03274    9.79837
373096.632700    0.03529    0.05712    0.18180   -0.69720    0.02990    9.79984
373096.642700    0.13688   -0.07007    0.33232   -0.68745    0.02722    9.78095
373096.652700    0.00327    0.07019    0.28940   -0.68242    0.03103    9.79766
373096.662700    0.14015    0.17876    0.35827   -0.68131    0.02281    9.80094
373096.672700    0.11872    0.23159    0.22334   -0.69433    0.04058    9.78440
373096.682700    0.05873   -0.01684    0.35271   -0.68177    0.01217    9.80211
373096.692700    0.16558    0.11024    0.29668   -0.69613    0.02758    9.79701
373096.702700    0.04950    0.14387    0.35627   -0.69178    0.03919    9.78977
373096.712700    0.02177   -0.11940    0.21389   -0.70498    0.03186    9.79058
373096.722700    0.08944    0.09127    0.22477   -0.67722    0.03840    9.80723
373096.732700    0.01261   -0.05684    0.35426   -0.69268    0.04124    9.78834
373096.742700    0.07122    0.19165    0.35896   -0.69137    0.02372    9.79061
373096.752700    0.16593    0.20071    0.10697   -0.68993    0.03816    9.78085
373096.762700    0.11929    0.09024    0.32550   -0.69032    0.02805    9.81161
373096.772700    0.14467    0.20838    0.20999   -0.69085    0.04339    9.78652
373096.782700    0.17063   -0.00321    0.25067   -0.70094    0.02820    9.79630
373096.792700    0.23801    0.17429    0.24637   -0.67826    0.03269    9.81262
373096.802700    0.01455    0.16765    0.19733   -0.69220    0.04263    9.79829
373096.812700    0.05575    0.09763    0.28224   -0.69648    0.03376    9.80195
373096.822700    0.13447    0.26115    0.20460   -0.67687    0.01911    9.80596
373096.832700    0.06721   -0.01020    0.23887   -0.68644    0.02612    9.78560
373096.842700    0.02578    0.16851    0.30768   -0.68146    0.03829    9.79617
373096.852700    0.08285    0.07185    0.29301   -0.68349    0.03616    9.78515
373096.862700    0.10800    0.11362    0.20231   -0.68986    0.02285    9.81344
373096.872700   -0.01169   -0.01541    0.12359   -0.69722    0.03466    9.78732
373096.882700    0.05953    0.07248    0.27152   -0.68933    0.03640    9.78658
373096.892700   -0.05523    0.00521    0.17733   -0.68295    0.01890    9.80633
373096.902700    0.15516    0.27261    0.01071   -0.69907    0.03097    9.79234
373096.912700    0.03741    0.13109    0.21463   -0.69041    0.03226    9.78233
373096.922700    0.09288    0.06686    0.04733   -0.69895    0.03298    9.79661
373096.932700    0.14364    0.21606    0.45779   -0.69930    0.02692    9.80094
373096.942700    0.05432   -0.14043    0.25961   -0.70337    0.02730    9.78418
373096.952700    0.07305    0.09746    0.39528   -0.69371    0.02365    9.79418
373096.962700    0.10668   -0.02361    0.22712   -0.68779    0.02645    9.78595
373096.972700    0.07340    0.17785    0.16083   -0.68240    0.02353    9.80343
373096.982700    0.10010    0.21715    0.24494   -0.68475    0.04370    9.77937
373096.992700    0.26207    0.06927    0.20380   -0.68309    0.02571    9.79201
373097.002700    0.08732    0.26213    0.28161   -0.68416    0.02220    9.80737
373097.012700    0.00773    0.08119    0.29822   -0.68377    0.03677    9.79263
373097.022700    0.02332   -0.10170    0.17429   -0.69223    0.02435    9.78919
373097.032700    0.12725    0.11316    0.37924   -0.68205    0.02456    9.80627
373097.042700   -0.05283    0.00602    0.42680   -0.69140    0.03982    9.78941
373097.052700    0.25800    0.09964    0.17120   -0.69064    0.02673    9.79523
373097.062700    0.05867   -0.02527    0.31404   -0.69225    0.02641    9.79024
373097.072700    0.08594    0.10840    0.24356   -0.68750    0.03183    9.80695
373097.082700    0.15183    0.03123    0.29691   -0.68444    0.03829    9.79263
373097.092700    0.14261    0.06755    0.25542   -0.68553    0.03336    9.78232
373097.102700   -0.05151    0.10835    0.28012   -0.68746    0.01886    9.80027
373097.112700    0.05248    0.03879    0.21165   -0.68607    0.03376    9.79873
373097.122700    0.09419   -0.05202    0.42445   -0.69550    0.04093    9.78869
373097.132700   -0.00613    0.13035    0.31793   -0.69345    0.03027    9.81195
373097.142700    0.17498    0.14456    0.31902   -0.70077    0.04350    9.79688
373097.152700    0.05970    0.08738    0.36755   -0.68620    0.02751    9.79378
373097.162700    0.20735    0.10479    0.22953   -0.69395    0.01382    9.79641
373097.172700   -0.08846    0.11270    0.17315   -0.68723    0.03351    9.78624
373097.182700    0.20781    0.19269    0.35667   -0.68209    0.03182    9.80265
373097.192700    0.13109    0.02383    0.45321   -0.68758    0.03521    9.79229
373097.202700    0.03220    0.12198    0.20300   -0.68486    0.03033    9.78947
373097.212700    0.32859    0.00963    0.19423   -0.68439    0.03846    9.80867
373097.222700    0.04607    0.16444    0.21257   -0.69739    0.04254    9.78333
373097.232700    0.05930    0.13803    0.11608   -0.68685    0.01760    9.79849
373097.242700    0.02744    0.09603    0.07838   -0.67715    0.02315    9.80842
373097.252700   -0.01765    0.02510    0.28688   -0.69334    0.03388    9.78127
373097.262700    0.15481   -0.02235    0.19933   -0.68706    0.02702    9.80771
373097.272700    0.14169    0.12450    0.15659   -0.69032    0.02993    9.79091
373097.282700   -0.16312    0.02796    0.36996   -0.68923    0.03017    9.80518
373097.292700    0.04068    0.07638    0.20581   -0.69553    0.03051    9.79092
373097.302700    0.11728   -0.02756    0.14272   -0.68954    0.02654    9.78988
373097.312700    0.05581    0.09253    0.04715   -0.67783    0.03009    9.81478
373097.322700    0.17613    0.12634   -0.02813   -0.68482    0.03386    9.79444
373097.332700    0.01192    0.15728    0.40829   -0.68528    0.03750    9.78299
373097.342700    0.12897   -0.00063    0.29158   -0.68911    0.01423    9.81672
373097.352700    0.05403   -0.05672    0.15092   -0.69777    0.03021    9.79343
373097.362700   -0.07586   -0.05970    0.30395   -0.69157    0.02935    9.78451
373097.372700    0.10749    0.10439    0.28035   -0.68784    0.02526    9.79773
373097.382700    0.00183    0.11488    0.25159   -0.68276    0.02990    9.80231
373097.392700    0.10153    0.18942    0.38050   -0.69002    0.03203    9.79981
373097.402700    0.01255    0.12301    0.22976   -0.67964    0.02827    9.79839
373097.412700   -0.03214    0.27433    0.38904   -0.68419    0.02713    9.79235
373097.422700    0.24763    0.06434    0.14908   -0.68470    0.02159    9.80774
373097.432700   -0.09981   -0.08692    0.29880   -0.68092    0.02950    9.78484
373097.442700   -0.04417    0.15470    0.22156   -0.68008    0.03225    9.79729
373097.452700    0.25852    0.06033    0.21996   -0.68819    0.02986    9.80553
373097.462700    0.05747    0.15304    0.39408   -0.69386    0.03645    9.78408
373097.472700    0.16530   -0.03380    0.37265   -0.68569    0.02251    9.79632
373097.482700    0.20987    0.24087    0.28997   -0.67862    0.02649    9.81160
373097.492700    0.03398   -0.06045    0.30155   -0.69026    0.03505    9.78945
373097.502700    0.13161   -0.04830    0.39603   -0.69529    0.01893    9.79922
373097.512700    0.14748    0.10233    0.21331   -0.68791    0.02902    9.80054
373097.522700   -0.00636    0.12714    0.20592   -0.69291    0.04232    9.79295
373097.532700    0.17716   -0.00682    0.19475   -0.68691    0.03835    9.79405
373097.542700    0.08554   -0.02756    0.30418   -0.68614    0.04059    9.79296
373097.552700    0.06916    0.19372    0.27290   -0.69696    0.02237    9.80702
373097.562700    0.05540    0.18804    0.37947   -0.69454    0.02995    9.79769
373097.572700    0.09219    0.13757    0.29633   -0.69870    0.02356    9.77314
373097.582700    0.14651   -0.07133    0.27491   -0.69190    0.02874    9.81446
373097.592700    0.20042    0.28144    0.21068   -0.69638    0.03868    9.80261
373097.602700    0.09843    0.16238    0.38405   -0.69663    0.03401    9.78910
373097.612700    0.19899    0.08738    0.31381   -0.68284    0.01472    9.81100
373097.622700    0.14668    0.13195    0.32172   -0.68565    0.04080    9.79580
373097.632700    0.01748    0.00561    0.27416   -0.68857    0.03272    9.79374
373097.642700    0.03037   -0.01885    0.35065   -0.68501    0.03060    9.79055
373097.652700   -0.07277   -0.01037    0.28946   -0.67859    0.03609    9.79691
373097.662700    0.19658    0.15550    0.30917   -0.69691    0.02873    9.79842
373097.672700    0.18426    0.21606    0.24586   -0.69289    0.03696    9.79478
373097.682700    0.05558   -0.02481    0.39465   -0.69181    0.01997    9.80598
373097.692700    0.15023   -0.03100    0.13029   -0.69017    0.03281    9.80944
373097.702700    0.16312    0.04320    0.16404   -0.68652    0.03342    9.77840
373097.712700    0.18604    0.08554    0.17464   -0.68027    0.03392    9.79836
373097.722700    0.23531    0.00762    0.28465   -0.68748    0.03882    9.80974
373097.732700   -0.01684    0.10456    0.19670   -0.69138    0.03638    9.79122
373097.742700    0.13356    0.10101    0.29376   -0.69058    0.02794    9.79771
373097.752700    0.07678    0.13602    0.24351   -0.69370    0.02545    9.80701
373097.762700    0.06297    0.00521    0.01673   -0.69442    0.03405    9.79767
373097.772700    0.13774    0.04206    0.03661   -0.68274    0.03352    9.79622
373097.782700    0.16902   -0.07935    0.24431   -0.68012    0.03078    9.79589
373097.792700    0.04297   -0.00132    0.13075   -0.68293    0.01445    9.79139
373097.802700    0.03925    0.18329    0.38130   -0.70117    0.02902    9.79057
373097.812700    0.07804   -0.11379    0.16639   -0.68753    0.03127    9.78056
373097.822700    0.09041    0.01874    0.25090   -0.69474    0.03622    9.80336
373097.832700    0.01770    0.17744    0.31289   -0.69915    0.03256    9.78091
373097.842700    0.03048   -0.07517    0.24505   -0.69507    0.03744    9.78909
373097.852700    0.09757    0.05277    0.08044   -0.67388    0.01574    9.83060
373097.862700    0.15642    0.10428    0.18174   -0.68897    0.02694    9.79664
373097.872700    0.16828    0.17252    0.15722   -0.68937    0.03480    9.78801
373097.882700    0.09219    0.19624    0.22093   -0.67920    0.02218    9.81236
373097.892700    0.10250    0.01896    0.11643   -0.68692    0.04367    9.78545
373097.902700    0.01558    0.03306    0.33529   -0.69338    0.02826    9.79236
373097.912700    0.08898    0.07913    0.29651   -0.68606    0.02176    9.80203
373097.922700    0.04893    0.10537    0.40319   -0.69621    0.02919    9.79948
373097.932700    0.03759    0.12210    0.18948   -0.69176    0.03165    9.79375
373097.942700    0.19899    0.37202    0.31793   -0.68848    0.03450    9.79443
373097.952700    0.10989    0.00218    0.44221   -0.68852    0.02765    9.80021
373097.962700    0.16484    0.17750    0.25502   -0.69802    0.03516    9.79123
373097.972700    0.00413    0.23262    0.10921   -0.67457    0.02619    9.79448
373097.982700    0.15201    0.03300    0.32034   -0.68816    0.02628    9.80949
373097.992700    0.16060    0.03581    0.16054   -0.69551    0.03768    9.80726
373098.002700    0.07620   -0.12399    0.43453   -0.68594    0.01886    9.78637
373098.012700   -0.02401    0.15006    0.32590   -0.67926    0.02617    9.80661
373098.022700    0.03432    0.24362    0.38996   -0.68668    0.03065    9.79018
373098.032700    0.03793    0.10187    0.28648   -0.69276    0.03815    9.78871
373098.042700   -0.05987    0.08749    0.12576   -0.68822    0.02502    9.80664
373098.052700    0.07299    0.00493    0.10204   -0.68657    0.04821    9.79718
373098.062700   -0.07363    0.06939    0.24689   -0.70145    0.04587    9.77975
373098.072700    0.00728    0.00619    0.22030   -0.67533    0.02214    9.80558
373098.082700    0.02309   -0.03564    0.27158   -0.68473    0.03896    9.79405
373098.092700    0.07609   -0.04704    0.36068   -0.68567    0.02764    9.79201
373098.102700    0.20323    0.11087    0.32727   -0.67894    0.02876    9.79732
373098.112700    0.16570    0.10697    0.35139   -0.68340    0.03287    9.80692
373098.122700   -0.12175   -0.05351    0.19870   -0.69714    0.03172    9.78842
373098.132700   -0.05414    0.02859    0.30808   -0.68531    0.01911    9.79350
373098.142700   -0.06778    0.11121    0.19641   -0.68038    0.04441    9.80575
373098.152700    0.07231    0.16816    0.35168   -0.68834    0.03167    9.79874
373098.162700    0.09248   -0.01175    0.25651   -0.68778    0.03173    9.80160
373098.172700   -0.09219   -0.06411    0.20346   -0.68154    0.03406    9.80834
373098.182700    0.18168    0.20260    0.52775   -0.68597    0.04322    9.79365
373098.192700   -0.02687    0.03157    0.47429   -0.68782    0.03123    9.79412
373098.202700    0.08382    0.14960    0.25050   -0.69007    0.02997    9.80838
373098.212700    0.27731    0.18747    0.26597   -0.69710    0.04291    9.79972
373098.222700    0.03850    0.03793    0.24374   -0.68344    0.03097    9.78412
373098.232700    0.09528    0.18392    0.24689   -0.69448    0.03006    9.80946
373098.242700    0.07013   -0.00676    0.24219   -0.69811    0.02232    9.79456
373098.252700    0.16690   -0.06343    0.50455   -0.69375    0.02002    9.78387
373098.262700    0.12336    0.00435    0.19996   -0.67916    0.03085    9.81051
373098.272700    0.02578    0.13573    0.22878   -0.69453    0.03891    9.79762
373098.282700    0.05632   -0.00092    0.16484   -0.69232    0.03127    9.78449
373098.292700    0.18100   -0.02257    0.24964   -0.68780    0.03016    9.80839
373098.302700   -0.00080   -0.08984    0.51967   -0.68507    0.04475    9.79222
373098.312700    0.04945    0.31484    0.26860   -0.68777    0.02996    9.78983
373098.322700    0.10583   -0.03088    0.19567   -0.67455    0.01357    9.80565
373098.332700    0.15160   -0.11047    0.32888   -0.68887    0.04625    9.80469
373098.342700    0.03552    0.03764    0.47527   -0.69817    0.02710    9.79168
373098.352700    0.22638    0.04796    0.13820   -0.69642    0.02421    9.80060
373098.362700    0.01232    0.06016    0.53875   -0.69240    0.03866    9.80475
373098.372700    0.18432    0.31874    0.27502   -0.69407    0.03861    9.78441
373098.382700   -0.02068    0.02464    0.21939   -0.68220    0.02030    9.80596
373098.392700   -0.04303   -0.04251    0.26900   -0.67574    0.03482    9.80191
373098.402700    0.17194    0.13963    0.37259   -0.69154    0.03448    9.78730
373098.412700    0.00057    0.18690    0.28224   -0.69455    0.02678    9.78773
373098.422700    0.02389   -0.00842    0.32378   -0.69372    0.02398    9.79239
373098.432700    0.12364    0.11373    0.30367   -0.68963    0.02625    9.79130
373098.442700    0.03690    0.02246    0.34595   -0.69380    0.02848    9.78807
373098.452700    0.03856    0.15430    0.35546   -0.68339    0.02724    9.80626
373098.462700    0.09127    0.05168    0.34423   -0.69521    0.04051    9.78050
373098.472700    0.05936   -0.04687    0.42995   -0.68094    0.02829    9.79805
373098.482700    0.02997    0.10290    0.30430   -0.68858    0.03244    9.80409
373098.492700    0.04744    0.26156    0.36652   -0.69233    0.04604    9.78507
373098.502700    0.13384    0.01845    0.15607   -0.69442    0.02653    9.79630
373098.512700    0.09121    0.01341    0.26814   -0.69194    0.02889    9.80341
373098.522700    0.18610    0.14817    0.14118   -0.69279    0.03343    9.79089
373098.532700    0.12490   -0.00642    0.37408   -0.68409    0.02309    9.78525
373098.542700    0.07746    0.05919    0.29037   -0.67434    0.02117    9.80808
373098.552700    0.00814   -0.08640    0.23147   -0.68923    0.03951    9.78870
373098.562700    0.07678    0.08039    0.37460   -0.69267    0.01952    9.78922
373098.572700   -0.00894   -0.03988    0.07970   -0.69330    0.02516    9.80452
373098.582700    0.13808   -0.01851    0.28533   -0.69306    0.03854    9.79513
373098.592700    0.03111    0.24889    0.23382   -0.69281    0.02129    9.79027
373098.602700    0.02848    0.02149    0.22036   -0.68925    0.03450    9.80656
373098.612700    0.04498    0.14926    0.37964   -0.67905    0.04137    9.79828
373098.622700    0.12416   -0.04154    0.32395   -0.67822    0.03460    9.79478
373098.632700    0.08738    0.07202    0.33346   -0.68673    0.02634    9.81341
373098.642700    0.22586    0.15596    0.32876   -0.68989    0.04529    9.79291
373098.652700    0.09253   -0.10204    0.34292   -0.68265    0.03303    9.79017
373098.662700    0.18478    0.12439    0.22764   -0.68541    0.02041    9.80240
373098.672700    0.01089   -0.03598    0.40273   -0.68984    0.03204    9.79803
373098.682700   -0.01490    0.17647    0.21245   -0.69583    0.02637    9.79345
373098.692700   -0.04011   -0.01994    0.14416   -0.67255    0.01927    9.79704
373098.702700    0.08245    0.05168    0.37282   -0.68827    0.03790    9.79691
373098.712700    0.03060    0.30023    0.25055   -0.69569    0.01640    9.78817
373098.722700    0.03610    0.12015    0.04057   -0.68579    0.02724    9.81125
373098.732700    0.13562   -0.04142    0.33575   -0.68987    0.03584    9.80014
373098.742700    0.15287    0.11660    0.30991   -0.68665    0.03030    9.78911
373098.752700   -0.05071    0.10817    0.25680   -0.68752    0.02573    9.80057
373098.762700    0.11620   -0.05323    0.06830   -0.69399    0.03555    9.80907
373098.772700   -0.02653    0.17257    0.17131   -0.68386    0.02885    9.78341
373098.782700    0.05718    0.13556    0.31243   -0.69037    0.03651    9.80156
373098.792700    0.23812    0.08749    0.29055   -0.69405    0.03081    9.80482
373098.802700    0.17527   -0.01066    0.18306   -0.68850    0.02481    9.78846
373098.812700    0.02229   -0.03913    0.30510   -0.68768    0.02076    9.81025
373098.822700    0.03856   -0.01157    0.22947   -0.69851    0.03744    9.80335
373098.832700    0.12038    0.13699    0.16524   -0.69910    0.03807    9.78052
373098.842700    0.11110    0.13545    0.39786   -0.68846    0.02385    9.80131
373098.852700    0.18403    0.02595    0.28258   -0.68580    0.03628    9.79371
373098.862700    0.02928   -0.10096    0.43533   -0.68266    0.04235    9.78867
373098.872700    0.12021    0.04738    0.21257   -0.68047    0.01937    9.80276
373098.882700    0.13837    0.12920    0.48489   -0.68307    0.02832    9.79341
373098.892700    0.23428    0.05254    0.43149   -0.68525    0.04085    9.79438
373098.902700    0.04297    0.02578    0.31283   -0.67751    0.02796    9.80482
373098.912700    0.17515    0.06515    0.39821   -0.68402    0.03713    9.80725
373098.922700    0.08732    0.07844    0.32979   -0.69069    0.03400    9.78589
373098.932700    0.04137    0.20798    0.27078   -0.68284    0.02029    9.79204
373098.942700    0.18965    0.31094    0.33094   -0.68292    0.03496    9.80368
373098.952700    0.21939    0.17447    0.28201   -0.68843    0.03867    9.78941
373098.962700    0.06102    0.13688    0.36715   -0.67443    0.02490    9.80412
373098.972700    0.07712    0.07219    0.20329   -0.69342    0.03892    9.79513
373098.982700    0.14330    0.13419    0.41213   -0.69627    0.03029    9.79626
373098.992700    0.04320    0.08812    0.21113   -0.68922    0.01760    9.80349
373099.002700    0.13929    0.15785    0.33415   -0.68007    0.03180    9.79302
373099.012700    0.10296    0.11900    0.31713   -0.68170    0.03239    9.78660
373099.022700    0.02378   -0.04406    0.23142   -0.68811    0.02576    9.78846
373099.032700    0.10451    0.12296    0.25520   -0.68822    0.03386    9.81263
373099.042700    0.04618    0.06423    0.26408   -0.68802    0.04120    9.78689
373099.052700    0.09952    0.12181    0.37007   -0.68178    0.02344    9.79344
373099.062700   -0.07214    0.01862    0.33134   -0.68928    0.03202    9.80836
373099.072700    0.04882    0.10611    0.36916   -0.69097    0.02487    9.79916
373099.082700   -0.02194    0.21658    0.32447   -0.68696    0.03120    9.78377
373099.092700   -0.07202    0.10691    0.07002   -0.68249    0.04021    9.79687
373099.102700    0.07007    0.03919    0.39110   -0.68370    0.02454    9.80093
373099.112700    0.11448    0.04263    0.32389   -0.68342    0.02645    9.78095
373099.122700   -0.04859    0.03718    0.12410   -0.69806    0.01268    9.81888
373099.132700    0.10073   -0.01845    0.31679   -0.69550    0.03797    9.79407
373099.142700    0.03673    0.02911    0.26167   -0.69580    0.03398    9.78519
373099.152700    0.10583   -0.00481    0.34733   -0.68440    0.03105    9.80088
373099.162700    0.09545   -0.07231    0.19131   -0.68494    0.03825    9.80120
373099.172700   -0.02916   -0.03031    0.20248   -0.68961    0.03081    9.78663
373099.182700    0.01249    0.13298    0.27559   -0.68305    0.02866    9.81088
373099.192700    0.16364   -0.00246    0.20180   -0.68102    0.03905    9.79653
373099.202700    0.03845   -0.02086    0.16581   -0.70370    0.03252    9.78629
373099.212700    0.12685    0.20071    0.19131   -0.68728    0.02517    9.80663
373099.222700   -0.05661    0.05959    0.25153   -0.68315    0.03496    9.79085
373099.232700    0.10090   -0.02160    0.12920   -0.68438    0.03479    9.79515
373099.242700    0.02361    0.06240    0.45613   -0.68163    0.02386    9.80985
373099.252700   -0.03203    0.11998    0.27468   -0.68834    0.04364    9.79686
373099.262700   -0.00653    0.02641    0.16473   -0.69169    0.02672    9.78773
373099.272700    0.18449   -0.05008    0.18426   -0.68739    0.02914    9.80661
373099.282700    0.07426    0.02120    0.26975   -0.68481    0.04448    9.80077
373099.292700    0.14037    0.09437    0.22128   -0.69659    0.02580    9.78738
373099.302700    0.03369    0.20821    0.36692   -0.68699    0.02722    9.79734
373099.312700    0.12823    0.03655    0.20890   -0.68032    0.03815    9.79369
373099.322700   -0.05684    0.13751    0.36606   -0.70320    0.03042    9.78558
373099.332700    0.14817    0.01180    0.20821   -0.69635    0.02173    9.79564
373099.342700    0.03065    0.04125    0.37993   -0.68653    0.03784    9.79370
373099.352700    0.07483    0.08921    0.34589   -0.68682    0.02996    9.79590
373099.362700    0.18845    0.08537    0.42513   -0.68440    0.02366    9.80842
373099.372700    0.10731    0.11396    0.23629   -0.69421    0.03677    9.79086
373099.382700    0.09299    0.08342    0.11436   -0.68964    0.03128    9.78805
373099.392700    0.09568    0.26356    0.36245   -0.68493    0.02995    9.79304
373099.402700   -0.01490    0.29874    0.23703   -0.69022    0.04440    9.80647
373099.412700    0.07271    0.07466    0.18163   -0.68173    0.02132    9.77956
373099.422700    0.16965   -0.05139    0.28550   -0.68609    0.02664    9.80056
373099.432700    0.14123    0.02819    0.27897   -0.68637    0.02904    9.80626
373099.442700    0.13310    0.12977    0.29456   -0.69595    0.02828    9.78843
373099.452700    0.13837    0.01828    0.12364   -0.68706    0.02692    9.80306
373099.462700    0.10411    0.03071    0.16753   -0.69005    0.04554    9.80148
373099.472700    0.04641    0.24202    0.28596   -0.68564    0.02571    9.78843
373099.482700    0.08503   -0.00126    0.21801   -0.67024    0.02635    9.79876
373099.492700    0.12032    0.17842    0.34114   -0.69325    0.03619    9.80369
373099.502700    0.00315    0.01140    0.35134   -0.69203    0.03229    9.79339
373099.512700    0.02739    0.02200    0.12697   -0.68475    0.02414    9.79845
373099.522700   -0.11769    0.08726    0.18025   -0.68614    0.02985    9.80334
373099.532700    0.19664    0.00040    0.19102   -0.69410    0.03530    9.79899
373099.542700    0.02561   -0.04750    0.22746   -0.68742    0.03413    9.79758
373099.552700    0.07007    0.16364    0.18117   -0.68340    0.02496    9.80583
373099.562700    0.14874   -0.03506    0.17767   -0.68991    0.02804    9.78835
373099.572700    0.05535   -0.06222    0.28785   -0.68676    0.02865    9.79975
373099.582700    0.03610   -0.01421    0.24735   -0.67763    0.02371    9.82083
373099.592700    0.05265   -0.05804    0.23583   -0.68838    0.02613    9.78909
373099.602700    0.12565    0.06835    0.25353   -0.68514    0.02317    9.79551
373099.612700    0.23251    0.12490    0.06939   -0.69701    0.04350    9.79286
373099.622700   -0.00527    0.15120    0.32716   -0.70113    0.03676    9.78508
373099.632700   -0.04057    0.08589    0.27101   -0.69547    0.02773    9.78658
373099.642700    0.16702    0.04372    0.25537   -0.68912    0.02371    9.81477
373099.652700    0.17149    0.07305    0.35111   -0.69406    0.02617    9.79194
373099.662700   -0.01862   -0.09030    0.19905   -0.68523    0.01931    9.79484
373099.672700   -0.11178   -0.02653    0.34383   -0.68404    0.02234    9.79623
373099.682700    0.16100    0.12290    0.31604   -0.69071    0.04083    9.79645
373099.692700    0.31960    0.24139    0.20460   -0.68734    0.03268    9.79365
373099.702700    0.13654   -0.00166    0.38016   -0.69296    0.02732    9.80476
373099.712700    0.04773    0.05260    0.41757   -0.69278    0.03997    9.79788
373099.722700    0.06480   -0.01656    0.25451   -0.69851    0.03719    9.78794
373099.732700    0.12519    0.16971    0.37958   -0.68169    0.02470    9.80405
373099.742700    0.07638   -0.01094    0.25457   -0.68276    0.04323    9.79285
373099.752700    0.09677    0.19188    0.22506   -0.68805    0.02930    9.78227
373099.762700    0.14651    0.09912    0.11694   -0.69708    0.02463    9.80586
373099.772700    0.04160    0.15562    0.21601   -0.69103    0.02857    9.79547
373099.782700    0.00321    0.06297    0.24419   -0.68337    0.02649    9.78550
373099.792700    0.37328    0.04830    0.28006   -0.68471    0.02655    9.80761
373099.802700    0.20690   -0.01329    0.29691   -0.69313    0.05113    9.79423
373099.812700    0.00888   -0.04922    0.26889   -0.69362    0.02476    9.78589
373099.822700    0.02997    0.13613    0.44777   -0.67917    0.02045    9.80444
373099.832700    0.09488    0.08388    0.46948   -0.69448    0.03382    9.79723
373099.842700    0.00046    0.03037    0.37724   -0.70096    0.02817    9.79051
373099.852700    0.16152    0.23732    0.21961   -0.68275    0.01948    9.80195
373099.862700    0.12880    0.06772    0.13860   -0.68412    0.04564    9.80104
373099.872700    0.16283    0.02326    0.30298   -0.69069    0.04002    9.79111
373099.882700    0.09843    0.01180    0.28602   -0.68159    0.02909    9.79974
373099.892700    0.07884    0.12399    0.29261   -0.68372    0.02766    9.79833
373099.902700    0.16845   -0.05575    0.16071   -0.69577    0.03592    9.79329
373099.912700    0.05369    0.03272    0.24906   -0.67888    0.02766    9.79297
373099.922700    0.04595    0.10817    0.26018   -0.69558    0.04001    9.79753
373099.932700    0.14673    0.12284    0.31610   -0.68201    0.01983    9.79446
373099.942700    0.14599    0.03552    0.11826   -0.68681    0.02286    9.79801
373099.952700   -0.04979    0.23377    0.36452   -0.68494    0.04209    9.80177
373099.962700    0.18495    0.02676    0.24397   -0.69994    0.02931    9.78301
373099.972700    0.01954    0.08612    0.35094   -0.68961    0.02689    9.79691
373099.982700   -0.09746    0.24448    0.30258   -0.68935    0.03226    9.80649
373099.992700    0.23571    0.14570    0.25325   -0.69396    0.03860    9.77934
373100.002700    0.07792    0.16049    0.12021   -0.68541    0.01871    9.80268
373100.012700    0.12628   -0.11488    0.22460   -0.69173    0.02878    9.80691
373100.022700    0.04125    0.19194    0.18180   -0.69109    0.02997    9.78690
373100.032700    0.03913    0.16776    0.32641   -0.67992    0.02671    9.80725
373100.042700    0.05540    0.00453    0.19074   -0.68820    0.03426    9.79935
373100.052700   -0.02997    0.08388    0.20724   -0.69026    0.01433    9.78347
373100.062700    0.06623    0.27886    0.10078   -0.68143    0.02633    9.79869
373100.072700    0.02235    0.01329    0.19412   -0.69225    0.03247    9.80509
373100.082700    0.17555    0.13172    0.39133   -0.69010    0.03950    9.78932
373100.092700    0.09110    0.26809    0.36664   -0.68316    0.02943    9.80152
373100.102700    0.09500    0.04841    0.39878   -0.68751    0.03601    9.80612
373100.112700    0.33438   -0.02871    0.50466   -0.68607    0.02989    9.78477
373100.122700    0.10892    0.10439    0.42576   -0.67368    0.01890    9.80979
373100.132700    0.16301    0.09935    0.28132   -0.69470    0.02707    9.80762
373100.142700    0.05420    0.23251    0.16461   -0.68703    0.02832    9.79225
373100.152700    0.12668    0.11791    0.13745   -0.68475    0.02943    9.79974
373100.162700    0.12674   -0.06262    0.24505   -0.67605    0.03671    9.80181
373100.172700    0.17693    0.04377    0.26431   -0.68649    0.03320    9.78937
373100.182700   -0.05151    0.10989    0.26723   -0.69445    0.02263    9.79125
373100.192700   -0.00275    0.12977    0.19183   -0.68139    0.02735    9.79690
373100.202700    0.06566    0.08657    0.23159   -0.69556    0.03647    9.79256
373100.212700    0.16226    0.08606    0.29651   -0.68132    0.02340    9.80335
373100.222700    0.01438   -0.07626    0.26092   -0.69181    0.02723    9.80192
373100.232700    0.09884    0.01031    0.04629   -0.68715    0.03421    9.79329
373100.242700   -0.00006    0.15521    0.24122   -0.68342    0.03099    9.79936
373100.252700    0.06400    0.16129    0.25296   -0.69027    0.02486    9.79765
373100.262700   -0.08646    0.19647    0.19767   -0.68892    0.02685    9.79798
373100.272700    0.17957    0.06967    0.09110   -0.68478    0.02982    9.79439
373100.282700    0.05214   -0.01146    0.21222   -0.68289    0.03215    9.79723
373100.292700    0.03495    0.01799    0.22746   -0.69886    0.03094    9.79512
373100.302700    0.04773    0.22620    0.32813   -0.68900    0.02104    9.79089
373100.312700   -0.03323    0.17068    0.30653   -0.68344    0.03038    9.79973
373100.322700    0.08039    0.16982    0.31839   -0.69725    0.02618    9.79586
373100.332700    0.18020    0.00693    0.38743   -0.69829    0.03319    9.78796
373100.342700    0.04870    0.09568    0.28104   -0.68541    0.02736    9.80154
373100.352700    0.09339   -0.06331    0.46925   -0.68368    0.03567    9.78935
373100.362700    0.12840   -0.07151    0.11488   -0.68326    0.02594    9.79372
373100.372700    0.14759    0.21967    0.28694   -0.68311    0.03433    9.80754
373100.382700    0.25881   -0.05999    0.19498   -0.68742    0.03094    9.79510
373100.392700    0.01524    0.06709    0.33856   -0.68881    0.02007    9.79520
373100.402700    0.30453    0.11201    0.21148   -0.68627    0.04105    9.80749
373100.412700    0.19406    0.11327    0.28843   -0.69173    0.03226    9.78903
373100.422700    0.07317    0.17922    0.37678   -0.69410    0.02519    9.79694
373100.432700    0.18226    0.02498    0.25468   -0.68547    0.03361    9.79472
373100.442700    0.14444    0.01736    0.38096   -0.70073    0.03613    9.78260
373100.452700    0.07191    0.09242    0.01008   -0.68653    0.02732    9.80439
373100.462700   -0.02172    0.18633    0.34320   -0.68007    0.04007    9.80641
373100.472700    0.04704    0.04194    0.41488   -0.68902    0.03413    9.78972
373100.482700    0.22185    0.21073    0.33117   -0.69012    0.03506    9.80397
373100.492700    0.03965    0.12118    0.33650   -0.69449    0.03079    9.80830
373100.502700    0.08067    0.11660    0.27193   -0.70352    0.03503    9.78617
373100.512700    0.08256    0.22053    0.36853   -0.68653    0.03397    9.81325
373100.522700    0.25027   -0.12874    0.41247   -0.69394    0.03359    9.80050
373100.532700    0.06108    0.21440    0.27164   -0.69774    0.03532    9.78267
373100.542700    0.11413    0.02441    0.09935   -0.68919    0.02384    9.80415
373100.552700    0.13344   -0.00235    0.24758   -0.69241    0.04135    9.79332
373100.562700    0.14192    0.05409    0.20346   -0.69004    0.02997    9.77665
373100.572700    0.06566    0.09127    0.26952   -0.69342    0.02098    9.79812
373100.582700    0.00269   -0.05443    0.30246   -0.67255    0.02934    9.80659
373100.592700   -0.06950    0.07122    0.10966   -0.68691    0.03247    9.78554
373100.602700    0.14032    0.01106    0.23852   -0.67775    0.02565    9.79772
373100.612700    0.15556    0.00201    0.20546   -0.68407    0.02840    9.80483
373100.622700    0.08749    0.14100    0.26213   -0.68688    0.03648    9.78694
373100.632700    0.18020    0.17040    0.25680   -0.68824    0.03126    9.80695
373100.642700    0.13063    0.03243    0.06904   -0.67922    0.03040    9.80337
373100.652700    0.09838    0.11992    0.18764   -0.69323    0.03951    9.77372
373100.662700    0.08102   -0.09906    0.37088   -0.68497    0.02729    9.80485
373100.672700    0.14576   -0.05592    0.29536   -0.68534    0.03110    9.79839
373100.682700    0.19515    0.03867    0.39568   -0.68661    0.03792    9.78228
373100.692700    0.07477    0.09471    0.35919   -0.68940    0.03992    9.79296
373100.702700    0.23382    0.08531    0.35793   -0.67753    0.03953    9.80223
373100.712700    0.18730   -0.06096    0.15029   -0.68821    0.03269    9.78733
373100.722700   -0.00195   -0.00029    0.34796   -0.67466    0.02078    9.80772
373100.732700    0.19097    0.02252    0.42605   -0.69375    0.03258    9.80730
373100.742700   -0.00888    0.10348    0.42376   -0.69097    0.02778    9.78559
373100.752700    0.16748   -0.05495    0.12943   -0.69528    0.02553    9.79561
373100.762700    0.09929    0.00413    0.18730   -0.68824    0.04245    9.80543
373100.772700    0.09299   -0.05735    0.25926   -0.70448    0.04086    9.77908
373100.782700   -0.10686    0.01077    0.27049   -0.68958    0.02464    9.79809
373100.792700    0.10004   -0.03168    0.06824   -0.69711    0.03580    9.80194
373100.802700    0.14851    0.03867    0.33186   -0.69831    0.04195    9.78762
373100.812700    0.15579    0.01266    0.31851   -0.68503    0.02497    9.80023
373100.822700    0.12382   -0.01667    0.28453   -0.67848    0.03544    9.81653
373100.832700    0.16306   -0.00069    0.31220   -0.68278    0.04450    9.78721
373100.842700    0.17779    0.04131    0.28149   -0.69958    0.03172    9.79163
373100.852700    0.05059    0.01415    0.15774   -0.67980    0.01701    9.81597
373100.862700    0.02727    0.23314    0.16839   -0.69214    0.02922    9.79234
373100.872700    0.09694    0.11711    0.30441   -0.68449    0.03450    9.78730
373100.882700    0.08795    0.16140    0.22448   -0.68831    0.03588    9.80156
373100.892700    0.06228    0.05701    0.22563   -0.68625    0.04302    9.78723
373100.902700    0.19303    0.15751    0.03340   -0.68999    0.02422    9.79702
373100.912700    0.07151   -0.07116    0.25044   -0.67418    0.02802    9.80518
373100.922700    0.12376   -0.02292    0.27645   -0.69003    0.03930    9.78834
373100.932700    0.15607   -0.01593    0.32578   -0.68968    0.03099    9.78413
373100.942700    0.17475    0.03306    0.41178   -0.68263    0.02640    9.80199
373100.952700    0.14421    0.03971    0.08772   -0.68786    0.03625    9.80192
373100.962700   -0.16324    0.04509    0.05919   -0.68893    0.03552    9.77803
373100.972700    0.12021   -0.11923    0.53537   -0.68529    0.02146    9.80275
373100.982700    0.07271    0.05999    0.38801   -0.68780    0.02804    9.79985
373100.992700    0.03988    0.13900    0.15252   -0.69766    0.02442    9.79132
373101.002700    0.17641   -0.06686    0.37913   -0.68051    0.02533    9.80449
373101.012700    0.22002   -0.03581    0.10886   -0.68848    0.03566    9.80620
373101.022700    0.03942   -0.08245    0.21452   -0.69746    0.02912    9.78416
373101.032700    0.13184   -0.00395    0.29983   -0.68954    0.02654    9.79594
373101.042700    0.04022    0.17624    0.38669   -0.69863    0.02924    9.79949
373101.052700    0.10548    0.18524    0.12107   -0.69054    0.03619    9.78801
373101.062700    0.17303   -0.09167    0.12410   -0.69569    0.02925    9.79343
373101.072700    0.09162    0.13556    0.40216   -0.67510    0.03564    9.80547
373101.082700    0.04807   -0.10548    0.11316   -0.68846    0.04100    9.79048
373101.092700    0.08623    0.01759    0.35426   -0.67716    0.02286    9.79274
373101.102700    0.09740    0.08096    0.40961   -0.68101    0.02625    9.80305
373101.112700   -0.03736   -0.07374    0.26557   -0.68752    0.03908    9.78513
373101.122700    0.10222   -0.03953    0.23348   -0.67945    0.02524    9.80627
373101.132700    0.25273   -0.12382    0.32189   -0.68248    0.04195    9.80687
373101.142700    0.22047    0.06996    0.34360   -0.68896    0.03728    9.79406
373101.152700   -0.10949    0.08789    0.23325   -0.68994    0.02704    9.79878
373101.162700    0.03375    0.28092    0.31988   -0.68041    0.03038    9.80265
373101.172700    0.08726    0.06366    0.23812   -0.69142    0.04055    9.78334
373101.182700    0.02120   -0.11505    0.33306   -0.68949    0.03617    9.79693
373101.192700    0.17865    0.16461    0.32613   -0.68764    0.03810    9.80974
373101.202700    0.05821   -0.00441    0.18541   -0.69682    0.03268    9.79982
373101.212700    0.05798    0.13155    0.24609   -0.68278    0.02416    9.79878
373101.222700    0.18346    0.08508    0.25004   -0.68857    0.03632    9.81475
373101.232700    0.03277    0.10623    0.36434   -0.69421    0.03638    9.78587
373101.242700    0.11499   -0.02859    0.24683   -0.68334    0.01931    9.78636
373101.252700    0.13063    0.00074    0.18753   -0.68266    0.02473    9.78702
373101.262700    0.09843    0.00074    0.21520   -0.68304    0.03612    9.78979
373101.272700   -0.02699    0.00762    0.37105   -0.69261    0.01911    9.78210
373101.282700    0.06486   -0.06555    0.14450   -0.69493    0.02404    9.80881
373101.292700    0.26757   -0.08955    0.32979   -0.70272    0.04444    9.77941
373101.302700    0.08354   -0.03398    0.15625   -0.68568    0.01759    9.78923
373101.312700   -0.07110    0.12473    0.31856   -0.69602    0.02205    9.81132
373101.322700    0.07368    0.25577    0.14410   -0.68733    0.02443    9.78988
373101.332700    0.06251    0.01713    0.44662   -0.68464    0.02095    9.79491
373101.342700    0.21148    0.08978    0.37047   -0.68683    0.02221    9.80452
373101.352700    0.06469    0.11528    0.33507   -0.68932    0.03170    9.79196
373101.362700    0.13522    0.02504    0.32395   -0.68578    0.02929    9.79448
373101.372700   -0.02269   -0.03266    0.21337   -0.68407    0.04078    9.81435
373101.382700    0.15407    0.09041    0.27605   -0.68382    0.04245    9.79365
373101.392700    0.29908    0.03375    0.48742   -0.69543    0.03078    9.78985
373101.402700    0.13041    0.07638    0.06429   -0.67713    0.02979    9.81015
373101.412700   -0.01896    0.18140    0.27261   -0.68907    0.03986    9.79439
373101.422700    0.10376    0.13419    0.31713   -0.68697    0.03140    9.79232
373101.432700    0.03845    0.21262    0.18203   -0.67280    0.03242    9.80049
373101.442700    0.17487    0.15865   -0.03908   -0.68174    0.02918    9.80588
373101.452700    0.13281    0.10783    0.33753   -0.69277    0.03445    9.79337
373101.462700    0.11161    0.05953    0.28585   -0.68917    0.02663    9.81198
373101.472700   -0.08663    0.07448    0.36171   -0.70383    0.03869    9.79728
373101.482700    0.01770    0.04286    0.18335   -0.69827    0.03844    9.78622
373101.492700   -0.21194    0.13585    0.16736   -0.69723    0.02910    9.80697
373101.502700    0.10531    0.34016    0.23623   -0.69950    0.03514    9.79658
373101.512700    0.17974    0.12674    0.30825   -0.70380    0.02856    9.78809
373101.522700    0.09093    0.08176    0.28373   -0.69540    0.01722    9.79994
373101.532700    0.05432    0.23629    0.20982   -0.69934    0.02507    9.80309
373101.542700    0.06641    0.00160    0.25290   -0.68990    0.02750    9.79058
373101.552700    0.06652    0.09465    0.22483   -0.68054    0.01081    9.80567
373101.562700    0.14863    0.09998    0.22941   -0.68238    0.03651    9.79299
373101.572700    0.09001    0.06291    0.54700   -0.69953    0.01962    9.78853
373101.582700   -0.06950    0.10405    0.20993   -0.70198    0.02260    9.80776
373101.592700    0.10204    0.10313    0.23107   -0.70041    0.03539    9.79837
373101.602700    0.01793   -0.05901    0.25680   -0.69711    0.02567    9.78740
373101.612700    0.11178    0.00074    0.21096   -0.67115    0.01330    9.80743
373101.622700    0.19097   -0.01140    0.28195   -0.66679    0.02541    9.78949
373101.632700    0.10193   -0.09293    0.44725   -0.68359    0.01962    9.78422
373101.642700    0.18352    0.14559    0.45464   -0.68717    0.02360    9.81093
373101.652700    0.01707    0.01811    0.51916   -0.67512    0.03313    9.79265
373101.662700   -0.05712   -0.03094    0.37924   -0.68996    0.03075    9.78591
373101.672700    0.07626    0.17704    0.46135   -0.68179    0.02756    9.79590
373101.682700    0.18644    0.22099    0.15991   -0.68727    0.04226    9.80899
373101.692700    0.20294    0.11671    0.23749   -0.68625    0.03356    9.79516
373101.702700    0.12943    0.12639    0.17722   -0.66998    0.03881    9.80579
373101.712700   -0.03266    0.29708    0.26224   -0.66967    0.04656    9.80213
373101.722700    0.02504    0.12869    0.24964   -0.67474    0.02522    9.79735
373101.732700    0.13104    0.18839    0.32321   -0.67212    0.02984    9.80728
373101.742700    0.13957    0.21795    0.28728   -0.67879    0.04496    9.79718
373101.752700   -0.07672    0.23904    0.24551   -0.67459    0.03272    9.79335
373101.762700    0.05231    0.18272    0.25393   -0.68450    0.03280    9.80300
373101.772700    0.05260    0.07185    0.32905   -0.69383    0.03503    9.79373
373101.782700    0.11780    0.11167    0.11723   -0.68694    0.01860    9.78208
373101.792700    0.05071    0.19864    0.36618   -0.70066    0.02788    9.81305
373101.802700    0.07586   -0.04687    0.25497   -0.70057    0.03707    9.78767
373101.812700    0.01513    0.05409    0.25628   -0.69000    0.02261    9.79133
373101.822700    0.02424    0.20930    0.21698   -0.69035    0.03036    9.81801
373101.832700    0.11574    0.00877    0.33913   -0.68957    0.03271    9.78733
373101.842700    0.10766    0.11087    0.31982   -0.68569    0.01045    9.80213
373101.852700    0.09906    0.03564    0.21085   -0.68558    0.01699    9.80600
373101.862700    0.09333   -0.01346    0.23789   -0.69581    0.03410    9.79196
373101.872700    0.14536    0.08119    0.25359   -0.69300    0.01560    9.80280
373101.882700    0.10204   -0.00630    0.23233   -0.68827    0.04068    9.79047
373101.892700    0.18931   -0.06005    0.25789   -0.68981    0.03030    9.77809
373101.902700    0.02762    0.05311    0.22208   -0.68193    0.02134    9.79989
373101.912700    0.10949    0.06979    0.21778   -0.68837    0.03550    9.79050
373101.922700   -0.02366   -0.07603    0.32842   -0.68637    0.03433    9.78411
373101.932700    0.05930   -0.03667    0.18656   -0.67908    0.03350    9.81121
373101.942700    0.12147    0.09563    0.13333   -0.69420    0.03489    9.81013
373101.952700    0.08824   -0.00132    0.04658   -0.68947    0.02279    9.79847
373101.962700    0.00544    0.20002    0.21887   -0.69311    0.03648    9.81297
373101.972700   -0.02034    0.11918    0.22529   -0.69842    0.03733    9.79656
373101.982700    0.25703   -0.04532    0.24540   -0.70115    0.02973    9.80022
373101.992700    0.09007   -0.13900    0.28321   -0.67736    0.02662    9.80662
373102.002700   -0.00441    0.18403    0.10840   -0.68909    0.02911    9.78235
373102.012700    0.12702    0.10491    0.21423   -0.68474    0.02212    9.79989
373102.022700    0.16008    0.05437    0.38468   -0.70010    0.04654    9.80220
373102.032700    0.01352    0.17527    0.37408   -0.69462    0.03947    9.78585
373102.042700   -0.00361    0.22981    0.24471   -0.67685    0.02833    9.81016
373102.052700    0.09717    0.05718    0.21509   -0.68103    0.04144    9.79723
373102.062700    0.10966    0.18243    0.26304   -0.68601    0.02995    9.79054
373102.072700    0.05667   -0.00206    0.28430   -0.68061    0.03242    9.79979
373102.082700   -0.00636    0.00837    0.43235   -0.69733    0.04114    9.78726
373102.092700    0.09626    0.14725    0.25239   -0.68864    0.02616    9.78452
373102.102700   -0.13550    0.00728    0.27502   -0.68782    0.04570    9.81005
373102.112700    0.19738    0.08824    0.42422   -0.68699    0.03317    9.78838
373102.122700    0.12015    0.08537    0.22758   -0.69092    0.01729    9.80849
373102.132700    0.14828    0.06916    0.05626   -0.69325    0.02914    9.81803
373102.142700    0.11356    0.05712    0.32086   -0.69896    0.03948    9.78337
373102.152700    0.23079    0.09637    0.26557   -0.68455    0.02635    9.80875
373102.162700    0.16667    0.09133    0.26173   -0.69765    0.04382    9.79687
373102.172700    0.02143   -0.09018    0.14461   -0.68360    0.02788    9.78344
373102.182700    0.06217   -0.04756    0.17859   -0.68807    0.03281    9.80802
373102.192700    0.25984    0.10949    0.44324   -0.68691    0.03528    9.79336
373102.202700   -0.01238   -0.09311    0.16066   -0.69576    0.02981    9.79699
373102.212700    0.02848    0.18375    0.30590   -0.68894    0.03109    9.80838
373102.222700    0.11528    0.19429    0.44433   -0.69259    0.03795    9.79547
373102.232700   -0.06503    0.02756    0.28138   -0.69830    0.03286    9.79162
373102.242700    0.10279   -0.02429    0.39047   -0.68127    0.03494    9.80335
373102.252700    0.06182    0.08016    0.17802   -0.69150    0.03913    9.77658
373102.262700    0.01879   -0.04698    0.32659   -0.68803    0.02450    9.80416
373102.272700    0.20340   -0.03506    0.22815   -0.68160    0.03400    9.80656
373102.282700    0.16157    0.11419    0.16570   -0.68167    0.02594    9.79628
373102.292700    0.07414   -0.04847    0.27387   -0.67801    0.02451    9.80593
373102.302700    0.16650   -0.09425    0.28413   -0.68574    0.03551    9.78802
373102.312700    0.11110    0.19114    0.18948   -0.68913    0.02950    9.77593
373102.322700    0.10044   -0.02469    0.20019   -0.69296    0.02687    9.80450
373102.332700    0.13436    0.09460    0.24104   -0.68902    0.03749    9.78657
373102.342700   -0.03942    0.04440    0.21222   -0.69309    0.02772    9.78487
373102.352700    0.05374   -0.01719    0.14358   -0.67865    0.02843    9.81802
373102.362700    0.09786    0.30567    0.30292   -0.68880    0.03339    9.78873
373102.372700    0.02865   -0.00304    0.15332   -0.68464    0.01821    9.80206
373102.382700    0.05833    0.09563    0.21767   -0.69029    0.03279    9.81051
373102.392700    0.08079   -0.09356    0.22649   -0.68878    0.02234    9.78385
373102.402700   -0.06950    0.07036    0.11872   -0.68431    0.01993    9.80490
373102.412700    0.07924   -0.00791    0.30046   -0.68927    0.04140    9.80366
373102.422700    0.14255    0.11155    0.33512   -0.67666    0.02891    9.77912
373102.432700    0.09219    0.12611    0.32429   -0.67072    0.03776    9.80330
373102.442700    0.08646    0.27313    0.29502   -0.68326    0.03929    9.79260
373102.452700    0.08973    0.19228    0.28992   -0.69630    0.03154    9.79126
373102.462700    0.03793    0.02636    0.39546   -0.69099    0.03648    9.80513
373102.472700    0.18254    0.08480    0.19269   -0.69564    0.03163    9.78448
373102.482700    0.01748    0.08824    0.27410   -0.68935    0.02751    9.79271
373102.492700    0.04337    0.04194    0.14868   -0.66330    0.03358    9.80904
373102.502700   -0.05191    0.02343    0.19503   -0.69792    0.02972    9.78593
373102.512700    0.24574    0.09500    0.44954   -0.68137    0.03499    9.80370
373102.522700   -0.04561    0.02825    0.22024   -0.68411    0.03886    9.80041
373102.532700    0.18054    0.20334    0.17332   -0.69313    0.02454    9.78767
373102.542700    0.17802    0.00625    0.24505   -0.68225    0.03887    9.81500
373102.552700    0.14387   -0.07494    0.25250   -0.69434    0.04215    9.80786
373102.562700    0.04773    0.16438    0.14719   -0.69039    0.02712    9.77836
373102.572700    0.13258    0.06555    0.18822   -0.69331    0.03253    9.80794
373102.582700    0.21675    0.15774    0.16822   -0.68556    0.03326    9.79400
373102.592700    0.18300    0.03461    0.17498   -0.68056    0.02120    9.78554
373102.602700    0.13321    0.06411    0.38302   -0.67674    0.02818    9.81401
373102.612700    0.01071    0.12920    0.17939   -0.69204    0.03207    9.78832
373102.622700    0.06366   -0.00607    0.17389   -0.69815    0.02688    9.79159
373102.632700    0.11700    0.02510    0.21434   -0.67540    0.03236    9.81290
373102.642700    0.03661    0.07087    0.29565   -0.69000    0.03370    9.78937
373102.652700    0.14335    0.02544    0.35088   -0.69264    0.02384    9.80087
373102.662700    0.11620    0.05472    0.34526   -0.68552    0.04083    9.79858
373102.672700    0.03701    0.13390    0.33306   -0.68803    0.02654    9.78478
373102.682700    0.03598    0.11442    0.24706   -0.68507    0.02591    9.80655
373102.692700    0.27061    0.16444    0.29490   -0.68488    0.03673    9.78862
373102.702700    0.15464    0.00447    0.15000   -0.68433    0.02047    9.79197
373102.712700    0.00218    0.21131    0.27450   -0.67720    0.02982    9.81399
373102.722700    0.13447    0.03352    0.36348   -0.68103    0.03724    9.78434
373102.732700   -0.01994    0.06537    0.24173   -0.68342    0.03172    9.79615
373102.742700   -0.00882    0.13195    0.24694   -0.68444    0.03729    9.80110
373102.752700    0.10078    0.14169    0.20489   -0.67802    0.02797    9.78084
373102.762700    0.08434   -0.02561    0.45774   -0.67876    0.02261    9.80550
373102.772700    0.17103    0.19039    0.26591   -0.69900    0.03288    9.80473
373102.782700    0.05678    0.17280    0.20827   -0.68943    0.03267    9.77582
373102.792700   -0.10508    0.10353    0.27731   -0.68578    0.03207    9.81327
373102.802700    0.17212    0.05718    0.21434   -0.68447    0.04332    9.80284
373102.812700    0.15848    0.08274    0.13785   -0.68685    0.01974    9.79340
373102.822700    0.13848    0.12508    0.20225   -0.68863    0.03664    9.79861
373102.832700    0.10978    0.03759    0.19538   -0.69618    0.04024    9.78256
373102.842700    0.12765    0.06343    0.28619   -0.69176    0.02968    9.79083
373102.852700    0.14519    0.22964    0.43161   -0.69035    0.03485    9.80434
373102.862700    0.15218    0.09666    0.21142   -0.70083    0.05057    9.78675
373102.872700    0.12193    0.11070    0.25170   -0.69231    0.01949    9.80304
373102.882700    0.02458    0.17968   -0.06560   -0.68896    0.03425    9.80719
373102.892700    0.07259    0.08537    0.10359   -0.68726    0.02646    9.78051
373102.902700   -0.06068   -0.07638    0.17040   -0.68867    0.02138    9.81301
373102.912700    0.17567    0.09912    0.31450   -0.68525    0.05292    9.80133
373102.922700    0.11219    0.14971    0.15728   -0.68520    0.02793    9.78656
373102.932700    0.09058   -0.00476    0.19905   -0.68670    0.02363    9.80693
373102.942700    0.02979    0.13854    0.37449   -0.68062    0.03983    9.80964
373102.952700    0.05334    0.01472    0.34085   -0.69325    0.02060    9.79342
373102.962700    0.09849    0.14181    0.36652   -0.67505    0.02476    9.81724
373102.972700    0.06864    0.13986    0.22724   -0.68599    0.03931    9.78789
373102.982700    0.11362    0.12599    0.25886   -0.68925    0.01831    9.79734
373102.992700    0.05552    0.10267    0.18696   -0.68551    0.04271    9.80320
373103.002700    0.13390    0.09001    0.33782   -0.68687    0.02896    9.77514
373103.012700   -0.01106    0.07913    0.22007   -0.67894    0.02897    9.79082
373103.022700    0.05644    0.15126    0.36171   -0.68350    0.04602    9.80673
373103.032700    0.14926   -0.03151    0.13837   -0.68502    0.02984    9.79618
373103.042700    0.13797    0.06721    0.16593   -0.68462    0.02118    9.80659
373103.052700    0.24935    0.05105    0.27720   -0.69445    0.03674    9.79328
373103.062700    0.00653   -0.00441    0.23033   -0.69200    0.03786    9.78150
373103.072700   -0.01868   -0.00625    0.12720   -0.68082    0.01872    9.81551
373103.082700    0.11425    0.17028    0.29994   -0.69250    0.03758    9.79041
373103.092700    0.10640    0.02538    0.25732   -0.69081    0.04586    9.78963
373103.102700    0.00418    0.07368    0.23188   -0.68063    0.03842    9.80822
373103.112700    0.07374    0.00665    0.30046   -0.69029    0.03348    9.78474
373103.122700    0.01020   -0.01644    0.18289   -0.69117    0.01078    9.80490
373103.132700    0.12118    0.06864    0.26270   -0.68605    0.02879    9.80974
373103.142700   -0.01289   -0.01415    0.27450   -0.69234    0.03890    9.79219
373103.152700    0.02269   -0.08480    0.28264   -0.69220    0.02480    9.79552
373103.162700    0.18507    0.16421    0.40067   -0.69005    0.03992    9.81321
373103.172700   -0.00309   -0.09013    0.31782   -0.67990    0.03163    9.78261
373103.182700   -0.02464    0.13338    0.33833   -0.68038    0.03551    9.80110
373103.192700    0.18168    0.01186    0.30607   -0.68642    0.03768    9.79683
373103.202700    0.11058    0.06595    0.25182   -0.68727    0.03136    9.77976
373103.212700    0.07861    0.13138    0.16988   -0.69060    0.01970    9.80090
373103.222700    0.00504    0.11763    0.08274   -0.69408    0.03388    9.80756
373103.232700    0.09374    0.05861    0.27794   -0.68574    0.02456    9.79551
373103.242700    0.01249   -0.04647    0.24855   -0.67519    0.02084    9.81763
373103.252700    0.02447    0.20518    0.25027   -0.68976    0.04230    9.79036
373103.262700    0.00796   -0.03266    0.27193   -0.67849    0.02345    9.78160
373103.272700    0.26528    0.00756    0.20145   -0.68881    0.03021    9.80545
373103.282700    0.10302    0.09156    0.21308   -0.68925    0.03209    9.79937
373103.292700    0.18495    0.07168    0.37334   -0.69007    0.03353    9.79115
373103.302700    0.06211    0.14788    0.40130   -0.68353    0.03840    9.80144
373103.312700    0.00212    0.11597    0.23543   -0.69314    0.03506    9.78402
373103.322700   -0.01748    0.28190    0.21835   -0.68260    0.02859    9.79474
373103.332700    0.20495    0.08623    0.22872   -0.67641    0.03521    9.81680
373103.342700    0.03484    0.15435    0.30602   -0.69015    0.03921    9.79110
373103.352700   -0.11889    0.07024    0.31965   -0.69239    0.03226    9.80401
373103.362700   -0.04544    0.02149    0.26167   -0.68536    0.03588    9.80433
373103.372700    0.09964    0.07895    0.22047   -0.69523    0.03787    9.78257
373103.382700    0.10932    0.09901    0.55073   -0.68987    0.02073    9.79947
373103.392700    0.06686   -0.02378    0.34108   -0.68880    0.03255    9.80971
373103.402700    0.13780    0.17848    0.43820   -0.68871    0.03073    9.78582
373103.412700    0.01163    0.12313    0.20472   -0.69799    0.04133    9.79360
373103.422700   -0.03466    0.07460    0.41660   -0.68757    0.03207    9.79830
373103.432700    0.09803    0.11322    0.09173   -0.70287    0.03429    9.77726
373103.442700    0.05426    0.15774    0.24408   -0.69444    0.02173    9.79732
373103.452700    0.16937   -0.05477    0.13482   -0.68925    0.03503    9.80470
373103.462700    0.09735   -0.04286    0.27468   -0.69413    0.04034    9.77970
373103.472700    0.15115    0.08451    0.18466   -0.69049    0.02185    9.80232
373103.482700    0.00762   -0.02086    0.19194   -0.68672    0.03588    9.80505
373103.492700    0.13212   -0.00097    0.44960   -0.69297    0.02483    9.79088
373103.502700    0.04131   -0.08835    0.25881   -0.68322    0.03155    9.80793
373103.512700    0.11963    0.01960    0.18025   -0.68367    0.03673    9.80183
373103.522700    0.15281    0.10405    0.12147   -0.68128    0.02320    9.78379
373103.532700    0.14249    0.05592    0.44719   -0.67264    0.02197    9.81199
373103.542700    0.08233   -0.06400    0.32005   -0.68406    0.03412    9.79694
373103.552700    0.00132    0.11041    0.32361   -0.67667    0.03760    9.79260
373103.562700   -0.04710    0.18713    0.18598   -0.69236    0.02107    9.81274
373103.572700    0.21629    0.20615    0.26373   -0.68499    0.03664    9.79762
373103.582700    0.02028    0.22506    0.38062   -0.68976    0.01366    9.78782
373103.592700    0.06154    0.21503    0.18065   -0.67448    0.02647    9.81160
373103.602700    0.06480    0.00132    0.57273   -0.68201    0.03757    9.79370
373103.612700    0.09843    0.06600    0.11574   -0.69864    0.02923    9.79271
373103.622700    0.15287    0.01965    0.24018   -0.68989    0.03049    9.81266
373103.632700    0.11110    0.17916    0.24809   -0.69293    0.04579    9.79007
373103.642700    0.03352    0.01289    0.33031   -0.68162    0.03448    9.79586
373103.652700    0.17091    0.19859    0.26717   -0.68933    0.03390    9.81084
373103.662700   -0.12055   -0.07070    0.24505   -0.69502    0.03081    9.79555
373103.672700   -0.00670    0.12009    0.29398   -0.68727    0.02295    9.78383
373103.682700    0.15315    0.01381    0.33432   -0.68059    0.03292    9.80835
373103.692700   -0.03976   -0.00865    0.28104   -0.68351    0.03844    9.78263
373103.702700    0.13974    0.30796    0.27731   -0.68905    0.02311    9.80022
373103.712700    0.21331   -0.01982    0.31662   -0.68162    0.03738    9.80262
373103.722700    0.07248   -0.02956    0.39356   -0.69581    0.04303    9.79689
373103.732700    0.00974    0.09482    0.10382   -0.68448    0.03269    9.79017
373103.742700    0.03667   -0.08772    0.20884   -0.68802    0.02834    9.81162
373103.752700    0.18741    0.28728    0.33409   -0.68440    0.04428    9.79113
373103.762700    0.06497    0.17899    0.28316   -0.68626    0.02677    9.78843
373103.772700   -0.02401    0.15705    0.33604   -0.68006    0.03279    9.80549
373103.782700   -0.05220    0.16421    0.22735   -0.68731    0.03784    9.79619
373103.792700   -0.02750    0.12410    0.25806   -0.69691    0.03186    9.79198
373103.802700    0.17149   -0.00504    0.42496   -0.68503    0.04046    9.81009
373103.812700    0.11860    0.06704    0.24866   -0.68254    0.04687    9.79540
373103.822700    0.20111    0.04366    0.28126   -0.68781    0.02831    9.78380
373103.832700    0.01421    0.09133    0.42428   -0.68784    0.03591    9.81297
373103.842700    0.14410    0.11608    0.29977   -0.68562    0.04377    9.78972
373103.852700    0.08073    0.07231    0.14278   -0.68371    0.02131    9.78598
373103.862700    0.01157    0.02538    0.20838   -0.67339    0.03072    9.80122
373103.872700   -0.01421    0.15424    0.31902   -0.68938    0.04437    9.79686
373103.882700    0.05947    0.26453    0.20386   -0.69150    0.02571    9.78488
373103.892700   -0.02790    0.07483    0.27989   -0.68881    0.02268    9.80880
373103.902700    0.09952   -0.08755    0.25921   -0.69814    0.03369    9.79340
373103.912700   -0.11579    0.15653    0.40863   -0.69894    0.02425    9.79988
373103.922700    0.15223    0.02544    0.30287   -0.68298    0.02293    9.80808
373103.932700   -0.05626    0.03862    0.26654   -0.69239    0.04043    9.78513
373103.942700    0.17865    0.13579    0.25222   -0.69443    0.02041    9.79849
373103.952700    0.02859    0.16633    0.31713   -0.69209    0.02588    9.80093
373103.962700   -0.07070   -0.10995    0.36303   -0.68583    0.03980    9.78691
373103.972700    0.23434   -0.03506    0.41809   -0.69672    0.01697    9.78605
373103.982700    0.23881    0.03335    0.30745   -0.69327    0.01981    9.80634
373103.992700   -0.04137    0.03008    0.18489   -0.69280    0.03365    9.80194
373104.002700    0.13281    0.10697    0.02865   -0.70028    0.02860    9.79451
373104.012700    0.02928    0.00785    0.11872   -0.68743    0.02349    9.80630
373104.022700    0.01536    0.12175    0.24643   -0.67764    0.04095    9.79223
373104.032700    0.02366    0.09689    0.27886   -0.69171    0.03299    9.79517
373104.042700    0.00894    0.08285    0.35798   -0.68517    0.03927    9.80474
373104.052700    0.11860    0.13831    0.17481   -0.68361    0.05079    9.80463
373104.062700    0.16495   -0.06641    0.09689   -0.68816    0.02587    9.79166
373104.072700    0.06692   -0.07947    0.16043   -0.68289    0.03279    9.81121
373104.082700    0.14542   -0.07426    0.15871   -0.68496    0.03252    9.80337
373104.092700    0.14433    0.06612    0.22907   -0.69517    0.02852    9.79236
373104.102700   -0.08119    0.01925    0.22082   -0.68568    0.01853    9.81026
373104.112700   -0.10015    0.05730    0.28969   -0.68346    0.04369    9.79507
373104.122700    0.29811    0.04028    0.16381   -0.68063    0.02919    9.79376
373104.132700    0.01501   -0.02532    0.02441   -0.68612    0.03453    9.81013
373104.142700    0.11963    0.07953    0.38852   -0.69630    0.04485    9.80185
373104.152700    0.00751    0.02962    0.29341   -0.68585    0.02746    9.78237
373104.162700    0.10858    0.05122    0.19228   -0.69139    0.04242    9.80080
373104.172700   -0.03449    0.07328    0.15877   -0.69620    0.03323    9.79375
373104.182700    0.12697    0.15006    0.30493   -0.68522    0.02723    9.78771
373104.192700   -0.08491   -0.01026    0.09614   -0.68021    0.02792    9.80910
373104.202700    0.09385   -0.09591    0.20730   -0.68199    0.04214    9.80008
373104.212700   -0.05197   -0.04372    0.27840   -0.68714    0.03468    9.79266
373104.222700    0.13018    0.08428    0.29530   -0.67753    0.02394    9.80342
373104.232700    0.06646    0.28717    0.21360   -0.68313    0.03146    9.80765
373104.242700    0.20970    0.13894    0.13012   -0.68934    0.02345    9.78490
373104.252700    0.02418   -0.02292    0.06228   -0.68117    0.02967    9.80874
373104.262700    0.02573    0.03071    0.44886   -0.69308    0.04176    9.80331
373104.272700    0.12691    0.09677    0.42531   -0.69618    0.02707    9.78167
373104.282700    0.08686    0.03105    0.28298   -0.68362    0.03112    9.80766
373104.292700    0.11253    0.15900    0.31295   -0.68662    0.03234    9.79908
373104.302700    0.05357    0.03489    0.21646   -0.68441    0.03234    9.78696
373104.312700    0.02418    0.05793    0.37070   -0.68652    0.03585    9.80405
373104.322700    0.02492    0.23021    0.20374   -0.69530    0.03615    9.79514
373104.332700    0.04108    0.10611    0.14502   -0.68630    0.04119    9.77834
373104.342700    0.11092    0.06801    0.12754   -0.68750    0.02734    9.80591
373104.352700    0.10674    0.05684    0.23434   -0.68976    0.05034    9.80323
373104.362700    0.03690   -0.04045    0.12324   -0.69324    0.02440    9.79133
373104.372700    0.10835    0.18209    0.17023   -0.68545    0.02009    9.80489
373104.382700   -0.00831   -0.00464    0.33037   -0.68265    0.03722    9.80582
373104.392700    0.10359    0.10015    0.39379   -0.69011    0.03609    9.78480
373104.402700    0.15029    0.06194    0.10428   -0.68483    0.03008    9.80053
373104.412700    0.17424    0.23188    0.26425   -0.67836    0.03356    9.80548
373104.422700    0.06480   -0.04228    0.51194   -0.69438    0.03822    9.79764
373104.432700   -0.01003   -0.01633    0.30458   -0.68404    0.02096    9.79953
373104.442700    0.14782    0.16186    0.45665   -0.67373    0.03220    9.79622
373104.452700    0.04698    0.17578    0.25520   -0.68799    0.04439    9.79079
373104.462700   -0.00172    0.06749    0.36159   -0.67961    0.03095    9.79766
373104.472700    0.16478    0.22128    0.33191   -0.68140    0.02645    9.80911
373104.482700    0.10250    0.10995    0.11482   -0.68068    0.03342    9.78267
373104.492700    0.16140   -0.10073    0.06360   -0.67835    0.02691    9.79699
373104.502700   -0.12972    0.18002    0.29536   -0.68968    0.03438    9.81119
373104.512700    0.13843    0.06297    0.30092   -0.69026    0.02593    9.79416
373104.522700   -0.04612    0.09253    0.16622   -0.68678    0.02134    9.79705
373104.532700    0.20260   -0.06102    0.24780   -0.67564    0.03123    9.80444
373104.542700    0.02939    0.16484    0.30138   -0.69108    0.03054    9.78948
373104.552700   -0.01782    0.13344    0.20099   -0.68203    0.01242    9.79282
373104.562700    0.17137    0.02447    0.18988   -0.68641    0.02526    9.81092
373104.572700    0.14880    0.02200    0.38566   -0.69759    0.04332    9.79046
373104.582700    0.06148    0.06268    0.28659   -0.68758    0.02550    9.79629
373104.592700    0.11001   -0.07706    0.25577   -0.68734    0.03115    9.81088
373104.602700    0.01283    0.07872    0.17968   -0.69372    0.02779    9.79771
373104.612700    0.08285    0.05288    0.24196   -0.68540    0.02209    9.79668
373104.622700    0.03988    0.19377    0.32653   -0.69144    0.04165    9.80544
373104.632700    0.04102   -0.00132    0.38016   -0.67793    0.03543    9.78550
373104.642700    0.11522   -0.15688    0.26247   -0.68286    0.01586    9.78781
373104.652700    0.11671    0.15338    0.19744   -0.68232    0.03115    9.81407
373104.662700    0.10966    0.16444    0.25846   -0.69422    0.03612    9.79443
373104.672700   -0.03495    0.11408    0.42983   -0.68549    0.02608    9.80234
373104.682700    0.09729    0.05667    0.27141   -0.68500    0.02737    9.81661
373104.692700   -0.05248    0.00304    0.20048   -0.67466    0.02940    9.80267
373104.702700    0.08285    0.14043    0.17389   -0.70020    0.03671    9.78266
373104.712700    0.04973    0.06749    0.19228   -0.68191    0.01628    9.80385
373104.722700    0.08715    0.09809    0.27914   -0.68728    0.03724    9.79120
373104.732700    0.03008    0.13419    0.39838   -0.68168    0.02277    9.79381
373104.742700    0.12525    0.09677    0.18163   -0.67962    0.02319    9.79594
373104.752700   -0.00859    0.09603    0.23950   -0.68838    0.04747    9.79968
373104.762700    0.01845    0.20392    0.36939   -0.68485    0.03535    9.78800
373104.772700   -0.08073    0.09036    0.31507   -0.68238    0.02948    9.79554
373104.782700   -0.14433    0.05460    0.12267   -0.68244    0.04249    9.78902
373104.792700    0.14845    0.14066    0.28006   -0.69244    0.02093    9.78885
373104.802700    0.05002    0.05369    0.27307   -0.68092    0.03007    9.80766
373104.812700    0.07993    0.09631    0.30802   -0.68347    0.04044    9.80543
373104.822700    0.08354    0.02172    0.29931   -0.70312    0.02838    9.77740
373104.832700    0.05202    0.06881    0.40863   -0.68133    0.02940    9.80552
373104.842700   -0.07036    0.19400    0.21222   -0.68111    0.03639    9.79975
373104.852700    0.21194    0.16346    0.09517   -0.69695    0.02891    9.78345
373104.862700    0.15401    0.08102    0.19074   -0.68538    0.01457    9.80067
373104.872700    0.08600    0.20546    0.24408   -0.68660    0.02381    9.80200
373104.882700    0.05884    0.07368    0.29095   -0.67759    0.03209    9.79087
373104.892700    0.03570    0.04635    0.26683   -0.67881    0.02064    9.78384
373104.902700    0.04721   -0.00063    0.37025   -0.68196    0.02971    9.80374
373104.912700    0.08411    0.09465    0.17865   -0.69034    0.03274    9.79232
373104.922700    0.17624   -0.13648    0.40869   -0.69048    0.03209    9.78664
373104.932700    0.14290    0.03449    0.24740   -0.68099    0.03390    9.80941
373104.942700    0.03638    0.12823    0.45670   -0.68804    0.04347    9.79543
373104.952700    0.10267    0.10789    0.43636   -0.69590    0.03332    9.78876
373104.962700   -0.00143    0.19836    0.25628   -0.68408    0.02422    9.81057
373104.972700    0.04389    0.12158    0.22529   -0.68936    0.03716    9.79370
373104.982700    0.17034    0.01874    0.13258   -0.69073    0.03923    9.78049
373104.992700    0.09568   -0.09293    0.18770   -0.68977    0.03142    9.80518
373105.002700    0.01931    0.09551    0.26746   -0.67726    0.03870    9.80651
373105.012700    0.19188    0.00384    0.42531   -0.67581    0.03209    9.78660
373105.022700    0.14221    0.07053    0.10726   -0.68734    0.01486    9.80673
373105.032700    0.04429   -0.09878    0.32487   -0.68989    0.04501    9.79686
373105.042700    0.21188    0.22947    0.28883   -0.69323    0.02665    9.78880
373105.052700    0.10021    0.22976    0.24660   -0.68497    0.03420    9.80299
373105.062700    0.16673    0.05953    0.49418   -0.67296    0.02542    9.80056
373105.072700    0.10628    0.01398    0.18719   -0.69412    0.03233    9.78698
373105.082700    0.09311    0.11024    0.22363   -0.68731    0.04209    9.79830
373105.092700   -0.08314    0.14484    0.26064   -0.69214    0.02954    9.79662
373105.102700    0.09958    0.07511    0.17979   -0.68618    0.03445    9.78945
373105.112700    0.03472   -0.05884    0.24311   -0.68911    0.02617    9.80628
373105.122700   -0.07047   -0.04847    0.22924   -0.67564    0.02297    9.80130
373105.132700    0.16175    0.13361    0.25772   -0.68350    0.03077    9.79267
373105.142700    0.07093    0.09969    0.28728   -0.68413    0.02348    9.79452
373105.152700    0.06429    0.25239    0.31100   -0.68898    0.03071    9.80802
373105.162700    0.08245    0.01982    0.27955   -0.69451    0.05006    9.80074
373105.172700    0.31358    0.25554    0.32046   -0.68213    0.02510    9.80020
373105.182700    0.07443    0.09013    0.19939   -0.69238    0.02995    9.79769
373105.192700    0.06366   -0.10193    0.21543   -0.69534    0.03711    9.79266
373105.202700    0.13333    0.00166    0.16759   -0.68328    0.02528    9.80022
373105.212700    0.23342    0.20781    0.27829   -0.68206    0.03196    9.81691
373105.222700    0.07448    0.08600    0.23526   -0.69686    0.03752    9.79657
373105.232700   -0.03552    0.04045    0.28190   -0.69034    0.02738    9.78665
373105.242700    0.16089    0.11081    0.22471   -0.68034    0.02805    9.80910
373105.252700   -0.03908    0.13757    0.32366   -0.69311    0.03324    9.79231
373105.262700    0.06698    0.10405    0.14278   -0.69100    0.03135    9.79340
373105.272700    0.22225   -0.03827    0.24872   -0.68009    0.01953    9.81310
373105.282700   -0.01318    0.18002    0.47613   -0.68972    0.03368    9.79301
373105.292700    0.12869    0.15888    0.32664   -0.68118    0.03273    9.78267
373105.302700   -0.05907   -0.02068    0.31461   -0.67699    0.02162    9.79098
373105.312700    0.04509   -0.09167    0.33031   -0.67858    0.04277    9.79579
373105.322700    0.09924    0.03707    0.27427   -0.69305    0.03301    9.78163
373105.332700   -0.02395   -0.06331    0.33810   -0.68699    0.02373    9.80559
373105.342700    0.12542    0.01238    0.33449   -0.69269    0.03762    9.80726
373105.352700   -0.04417    0.11150    0.31576   -0.69076    0.02674    9.79307
373105.362700    0.09912    0.14032    0.29261   -0.67611    0.02146    9.80701
373105.372700    0.11230    0.24861    0.21050   -0.69326    0.04277    9.80935
373105.382700    0.19549   -0.05042    0.22162   -0.69401    0.03071    9.78949
373105.392700    0.20764   -0.04710    0.17945   -0.69610    0.02757    9.79914
373105.402700    0.07746    0.16495    0.25050   -0.68178    0.02560    9.80162
373105.412700    0.21870    0.08955    0.32263   -0.70350    0.03131    9.78843
373105.422700   -0.03988    0.16369    0.07145   -0.68572    0.01640    9.80136
373105.432700    0.14662    0.03369    0.28235   -0.68781    0.03566    9.81405
373105.442700    0.12685    0.08835    0.09803   -0.69221    0.02916    9.78663
373105.452700    0.05804    0.13883    0.24666   -0.69484    0.02615    9.79344
373105.462700    0.04538    0.05529    0.25691   -0.68586    0.02902    9.80589
373105.472700    0.24620    0.17355    0.21366   -0.69712    0.03937    9.78370
373105.482700    0.08342    0.11688    0.30796   -0.68972    0.03304    9.78874
373105.492700    0.09958    0.06423    0.20139   -0.68062    0.03529    9.80619
373105.502700    0.04538    0.25726    0.24981   -0.68645    0.03785    9.79118
373105.512700    0.04870   -0.04870    0.15246   -0.68190    0.02386    9.80700
373105.522700    0.16375   -0.01295    0.23543   -0.68641    0.03913    9.80862
373105.532700    0.10290    0.07655    0.12960   -0.70393    0.04743    9.78713
373105.542700    0.09855    0.19366    0.20827   -0.68526    0.02968    9.79010
373105.552700    0.13505   -0.01478    0.42731   -0.68602    0.02082    9.80196
373105.562700    0.09116    0.12725    0.22913   -0.68493    0.03597    9.78970
373105.572700    0.18083   -0.11161    0.23291   -0.68943    0.02728    9.79122
373105.582700    0.09586   -0.04280    0.44622   -0.67915    0.03053    9.81114
373105.592700    0.08136    0.15825    0.31960   -0.69283    0.03963    9.79574
373105.602700    0.05563    0.11196    0.24265   -0.69483    0.03336    9.78582
373105.612700    0.05220    0.32051    0.30642   -0.69072    0.02602    9.81012
373105.622700    0.09987   -0.03209    0.28814   -0.68539    0.03357    9.79901
373105.632700    0.19589    0.14227    0.32263   -0.69822    0.02676    9.79586
373105.642700    0.11431    0.07701    0.30756   -0.68924    0.02732    9.80012
373105.652700    0.15911    0.22701    0.27370   -0.68421    0.04798    9.80351
373105.662700    0.20460    0.08629    0.39483   -0.68267    0.02367    9.79907
373105.672700    0.23812   -0.12095    0.23846   -0.68422    0.03199    9.80508
373105.682700    0.08296   -0.07712    0.43642   -0.68499    0.04110    9.80286
373105.692700    0.09419    0.05667    0.10548   -0.70002    0.03404    9.78261
373105.702700    0.08531    0.14461    0.10978   -0.68479    0.03430    9.80327
373105.712700    0.18656   -0.05248    0.21749   -0.68399    0.04193    9.80464
373105.722700   -0.07712   -0.05334    0.14335   -0.69978    0.03675    9.79508
373105.732700    0.13035    0.27261    0.28877   -0.67865    0.02021    9.80621
373105.742700   -0.07437   -0.06314    0.16570   -0.68566    0.03380    9.80221
373105.752700    0.07953    0.14920    0.29725   -0.67879    0.03932    9.78039
373105.762700    0.02653    0.06108    0.20323   -0.68166    0.03866    9.79218
373105.772700    0.05483    0.27468    0.41963   -0.67869    0.03193    9.80969
373105.782700    0.27342    0.06119    0.30424   -0.68752    0.03189    9.78261
373105.792700    0.02544    0.03449    0.11998   -0.69060    0.02582    9.78944
373105.802700    0.17103   -0.07219    0.38531   -0.68262    0.04226    9.80820
373105.812700    0.00527    0.01919    0.40806   -0.68786    0.02867    9.79083
373105.822700    0.13023   -0.02750    0.25502   -0.69372    0.02179    9.79590
373105.832700    0.00688    0.15138    0.16432   -0.69095    0.02792    9.81224
373105.842700    0.07878    0.16862    0.38142   -0.68745    0.03725    9.79396
373105.852700    0.04085   -0.05214    0.43270   -0.68355    0.01903    9.79163
373105.862700    0.01495    0.11161    0.37265   -0.68577    0.02531    9.80370
373105.872700    0.18002    0.06595    0.48008   -0.68986    0.03148    9.79867
373105.882700   -0.05357    0.11940    0.16157   -0.69347    0.02014    9.78521
373105.892700   -0.00625   -0.08909    0.22002   -0.68082    0.03049    9.80722
373105.902700    0.03495    0.11150    0.21022   -0.69034    0.03236    9.79116
373105.912700    0.10926    0.15900    0.38606   -0.68862    0.02794    9.78799
373105.922700   -0.00384    0.20168    0.35432   -0.67792    0.02593    9.79975
373105.932700    0.04194    0.14410    0.24958   -0.68279    0.03737    9.79717
373105.942700    0.04979   -0.02447    0.29158   -0.67883    0.03692    9.79433
373105.952700   -0.00911   -0.03495    0.27903   -0.69044    0.02795    9.80583
373105.962700    0.09821    0.12531    0.47687   -0.68578    0.03223    9.80828
373105.972700    0.01490    0.00074    0.30670   -0.69163    0.03167    9.78833
373105.982700    0.10548    0.09351    0.39792   -0.68793    0.02148    9.79267
373105.992700   -0.02722    0.01020    0.33340   -0.69059    0.03826    9.79505
373106.002700    0.03741    0.05718    0.26700   -0.69522    0.02957    9.78656
373106.012700    0.01564    0.02412    0.35076   -0.68636    0.02105    9.79304
373106.022700    0.27989    0.00693    0.24248   -0.67289    0.02649    9.80047
373106.032700    0.07128    0.16238    0.23778   -0.68485    0.03560    9.79969
373106.042700   -0.06910    0.14994    0.18380   -0.68775    0.02197    9.79375
373106.052700    0.02441   -0.05942    0.34022   -0.67388    0.02076    9.80409
373106.062700    0.09099    0.01169    0.09861   -0.68272    0.03386    9.79114
373106.072700    0.18180    0.14089    0.40881   -0.69457    0.03281    9.78796
373106.082700    0.16570    0.06658    0.18466   -0.67639    0.03954    9.80536
373106.092700    0.07913   -0.14335    0.16925   -0.69153    0.03732    9.80006
373106.102700    0.06440   -0.00052    0.19549   -0.68944    0.02802    9.79977
373106.112700    0.16536   -0.03443    0.37088   -0.67902    0.02225    9.80159
373106.122700    0.07357    0.10159    0.28482   -0.69283    0.05078    9.80207
373106.132700   -0.10668    0.07002    0.25136   -0.67101    0.02513    9.79547
373106.142700   -0.00579    0.12897    0.35300   -0.68405    0.02254    9.80978
373106.152700   -0.04985    0.00097    0.16931   -0.68791    0.04131    9.79073
373106.162700    0.06715    0.10445    0.18879   -0.68938    0.04445    9.78643
373106.172700    0.27788    0.14559    0.28688   -0.67447    0.02753    9.80437
373106.182700    0.05569    0.02785    0.30487   -0.67084    0.03012    9.79936
373106.192700    0.06623    0.21623    0.24133   -0.68161    0.04934    9.78708
373106.202700   -0.01392   -0.01610    0.14616   -0.68423    0.02040    9.81159
373106.212700    0.05695    0.20764    0.36343   -0.67860    0.03114    9.80186
373106.222700   -0.00510    0.17808    0.43791   -0.68488    0.03835    9.79681
373106.232700    0.08503    0.14410    0.34229   -0.68788    0.02500    9.80976
373106.242700    0.10714    0.23411    0.19297   -0.69251    0.03288    9.79793
373106.252700    0.08852    0.00034    0.16862   -0.69437    0.03759    9.79364
373106.262700   -0.01719    0.16243    0.22351   -0.69136    0.01415    9.80236
373106.272700    0.19715    0.03558    0.17773   -0.67633    0.03317    9.81362
373106.282700    0.02590    0.23354    0.20432   -0.68709    0.04334    9.78286
373106.292700    0.12777    0.18065    0.35741   -0.68838    0.03740    9.79789
373106.302700    0.02149   -0.00527    0.08417   -0.68390    0.02525    9.81547
373106.312700    0.02005    0.16765    0.16421   -0.69456    0.04033    9.79431
373106.322700   -0.04693    0.06280    0.14656   -0.69415    0.03254    9.78118
373106.332700    0.11791    0.10204    0.17464   -0.68541    0.02362    9.80407
373106.342700    0.02876    0.11155    0.23531   -0.68695    0.03836    9.80252
373106.352700    0.06967    0.05821    0.26070   -0.69584    0.02929    9.78514
373106.362700    0.10181    0.07340    0.34509   -0.68096    0.03019    9.80365
373106.372700    0.08044    0.08062    0.39081   -0.69170    0.03865    9.79896
373106.382700    0.10428    0.08296    0.30034   -0.69035    0.04243    9.80000
373106.392700    0.15859    0.08411    0.25565   -0.68364    0.02020    9.80445
373106.402700    0.19435   -0.11322    0.24013   -0.68625    0.02497    9.80300
373106.412700   -0.01341    0.13465    0.24769   -0.68140    0.04132    9.79072
373106.422700    0.24397    0.33925    0.31129   -0.68051    0.02680    9.80081
373106.432700    0.03146    0.24981    0.35953   -0.67470    0.03902    9.79642
373106.442700    0.14742    0.25772    0.32567   -0.68798    0.03039    9.78903
373106.452700    0.04102    0.09036    0.12330   -0.68616    0.03344    9.78902
373106.462700    0.17040    0.04807    0.23050   -0.67815    0.03467    9.80006
373106.472700    0.22179    0.11236    0.24557   -0.67808    0.04808    9.78923
373106.482700    0.05987   -0.00550    0.15063   -0.68781    0.03385    9.79829
373106.492700   -0.13980    0.10325    0.28614   -0.68515    0.02508    9.80334
373106.502700    0.12897    0.16501    0.13665   -0.68971    0.03530    9.79399
373106.512700   -0.02309    0.09219    0.11052   -0.67971    0.02863    9.78547
373106.522700    0.22173    0.12892    0.28946   -0.68713    0.02822    9.80903
373106.532700    0.05472    0.23640    0.32109   -0.68798    0.02799    9.80332
373106.542700    0.14209    0.21560    0.19297   -0.68604    0.03787    9.78148
373106.552700   -0.05569    0.17103    0.22059   -0.68960    0.02106    9.79982
373106.562700    0.09402    0.01175    0.25216   -0.68452    0.03469    9.81182
373106.572700    0.05042    0.01003    0.30218   -0.69235    0.04239    9.79288
373106.582700    0.06291    0.09202    0.19332   -0.69056    0.02624    9.79336
373106.592700    0.06423    0.02899    0.18736   -0.67635    0.02604    9.81331
373106.602700    0.11322   -0.02853    0.24253   -0.68992    0.04247    9.79145
373106.612700    0.06629    0.01684    0.22076   -0.68531    0.02284    9.80230
373106.622700    0.14146   -0.11201    0.20873   -0.68237    0.01438    9.81058
373106.632700    0.18461   -0.11935    0.28316   -0.69178    0.03464    9.81042
373106.642700    0.16856    0.15779    0.23182   -0.68659    0.03429    9.79292
373106.652700   -0.08044    0.14759    0.24941   -0.67748    0.02868    9.80544
373106.662700    0.02275    0.19979    0.25829   -0.68489    0.03346    9.79614
373106.672700    0.14662    0.13373    0.29467   -0.68073    0.03656    9.78719
373106.682700    0.08594   -0.01427    0.40823   -0.68769    0.01906    9.79805
373106.692700    0.21830    0.03317    0.34469   -0.68444    0.03858    9.80216
373106.702700    0.13911   -0.22282    0.27107   -0.69808    0.03687    9.78652
373106.712700    0.12886    0.04217    0.31937   -0.67809    0.02782    9.80581
373106.722700    0.12462    0.17607    0.21371   -0.68068    0.03266    9.81112
373106.732700    0.09706   -0.03111    0.25840   -0.68237    0.04114    9.80036
373106.742700   -0.10124    0.20535    0.32269   -0.68208    0.02232    9.79195
373106.752700   -0.03707    0.20770    0.33283   -0.68627    0.03170    9.80792
373106.762700    0.22391   -0.00739    0.30075   -0.69285    0.04461    9.78786
373106.772700    0.21039    0.12278    0.04813   -0.69134    0.02556    9.79087
373106.782700   -0.00653    0.18610    0.28081   -0.68547    0.03213    9.80506
373106.792700    0.16558    0.12502    0.06228   -0.69491    0.04175    9.80108
373106.802700   -0.02853    0.22523    0.22832   -0.70010    0.02537    9.78624
373106.812700    0.07638    0.08331    0.21050   -0.68575    0.02873    9.80296
373106.822700    0.01341    0.07047    0.29662   -0.67195    0.03454    9.79969
373106.832700    0.14863   -0.00779    0.20638   -0.69682    0.03422    9.78974
373106.842700    0.21853   -0.04841    0.21028   -0.68879    0.03122    9.80331
373106.852700    0.04979    0.16782    0.29450   -0.68175    0.03412    9.79684
373106.862700    0.14129   -0.00619    0.17767   -0.68794    0.04280    9.78573
373106.872700   -0.02504    0.04509    0.28298   -0.68780    0.02656    9.79906
373106.882700    0.24826    0.01977    0.15000   -0.68129    0.03686    9.80502
373106.892700    0.09133   -0.10233    0.21835   -0.68478    0.04221    9.79571
373106.902700    0.08325    0.20363    0.20644   -0.67698    0.03115    9.80363
373106.912700    0.07208    0.19968    0.33575   -0.67967    0.02942    9.80365
373106.922700    0.17126    0.06188    0.27536   -0.69793    0.04081    9.79539
373106.932700   -0.01398    0.06824    0.12152   -0.69168    0.02611    9.79514
373106.942700    0.11837    0.24288    0.13270   -0.67591    0.02748    9.81328
373106.952700   -0.00286    0.02813    0.42416   -0.67784    0.03176    9.78795
373106.962700    0.20214    0.06045    0.13189   -0.67405    0.03131    9.80292
373106.972700    0.18713    0.03782    0.41471   -0.68509    0.03396    9.80435
373106.982700    0.18037    0.24505    0.24952   -0.68980    0.03872    9.80251
373106.992700   -0.10113   -0.14467    0.21360   -0.68189    0.03088    9.77656
373107.002700    0.04767    0.18793    0.21646   -0.68588    0.01727    9.79769
373107.012700    0.00453    0.02057    0.20787   -0.68510    0.03279    9.79758
373107.022700    0.13086    0.04206    0.43510   -0.69105    0.03141    9.78226
373107.032700    0.16415    0.19693    0.34859   -0.69451    0.02317    9.79838
373107.042700    0.05392    0.03272    0.34876   -0.67646    0.04281    9.80426
373107.052700    0.15894    0.07443    0.27622   -0.69097    0.03382    9.78974
373107.062700    0.18696   -0.05861    0.33518   -0.68946    0.02088    9.79269
373107.072700    0.08835    0.15458    0.28843   -0.68536    0.02985    9.81686
373107.082700    0.01203    0.01203    0.27605   -0.69815    0.03312    9.80508
373107.092700    0.05873    0.00000    0.29971   -0.69571    0.02967    9.79584
373107.102700    0.01937    0.13791    0.14553   -0.68721    0.03071    9.80651
373107.112700    0.19051    0.22683    0.32670   -0.69388    0.03033    9.78512
373107.122700    0.02601    0.07219    0.37993   -0.69558    0.03709    9.77865
373107.132700   -0.05919    0.02498    0.12250   -0.68219    0.02037    9.80517
373107.142700    0.12410    0.10731    0.14410   -0.68305    0.02602    9.80654
373107.152700   -0.01249    0.17326    0.10124   -0.68512    0.03555    9.80433
373107.162700    0.01988    0.12536    0.28556   -0.67721    0.03386    9.80183
373107.172700    0.05071    0.05964    0.51646   -0.69169    0.04413    9.80320
373107.182700    0.14633   -0.04773    0.25789   -0.68232    0.03702    9.78720
373107.192700    0.01112   -0.05283    0.38847   -0.67942    0.02873    9.80403
373107.202700    0.13825    0.08520    0.31369   -0.68268    0.03702    9.79789
373107.212700   -0.02338    0.08950    0.34108   -0.67967    0.03864    9.79573
373107.222700    0.16788    0.24213    0.23050   -0.68483    0.02674    9.80118
373107.232700    0.06320    0.04910    0.23033   -0.68753    0.04188    9.81212
373107.242700    0.10136    0.02212    0.31759   -0.68539    0.03144    9.79224
373107.252700    0.11448    0.33438    0.26516   -0.68048    0.03050    9.79793
373107.262700    0.13545   -0.00109    0.31049   -0.68804    0.03123    9.81044
373107.272700    0.01175    0.14496    0.26476   -0.70192    0.05102    9.79459
373107.282700    0.25720    0.15974    0.28327   -0.69461    0.02664    9.78443
373107.292700    0.10422    0.10869    0.39013   -0.69399    0.01838    9.80769
373107.302700    0.11396    0.02916    0.41173   -0.67902    0.04489    9.79318
373107.312700    0.02618    0.13625    0.29897   -0.69067    0.02859    9.79476
373107.322700   -0.00579    0.00223    0.30395   -0.67874    0.02458    9.79907
373107.332700    0.06222    0.14370    0.14931   -0.68101    0.03211    9.79793
373107.342700    0.07311    0.10743    0.34578   -0.67761    0.03177    9.78794
373107.352700   -0.05025   -0.08125    0.08789   -0.67315    0.02585    9.80190
373107.362700    0.09236    0.20947    0.29714   -0.67646    0.02401    9.80762
373107.372700    0.16736    0.11975    0.31089   -0.68729    0.03608    9.79327
373107.382700    0.12668    0.04681    0.20529   -0.68257    0.02498    9.80870
373107.392700    0.01049    0.05048    0.25096   -0.67843    0.02877    9.81508
373107.402700   -0.03369    0.00435    0.25187   -0.69231    0.03204    9.80544
373107.412700    0.04761   -0.08274    0.28195   -0.69323    0.02072    9.80162
373107.422700    0.09906    0.16828    0.29908   -0.67509    0.01706    9.79876
373107.432700    0.10548   -0.04154    0.34022   -0.69161    0.03494    9.79900
373107.442700    0.09408    0.11253    0.27313   -0.67621    0.02488    9.78193
373107.452700    0.10250    0.14519    0.18157   -0.68575    0.02707    9.80405
373107.462700    0.17401    0.25027    0.22431   -0.68457    0.02570    9.79334
373107.472700    0.16942    0.03438    0.14164   -0.68992    0.03388    9.78296
373107.482700    0.00206    0.15630    0.36990   -0.67969    0.01783    9.78306
373107.492700    0.01324    0.10164    0.40319   -0.67926    0.03566    9.81323
373107.502700   -0.01467    0.20535    0.33621   -0.68933    0.03100    9.79973
373107.512700    0.02235    0.11287    0.16805   -0.68784    0.02512    9.79764
373107.522700    0.15716    0.12588    0.18277   -0.68267    0.03019    9.81048
373107.532700    0.22632   -0.01003    0.19303   -0.68125    0.03950    9.80866
373107.542700    0.19211    0.08457    0.41356   -0.68871    0.03293    9.80158
373107.552700    0.11883    0.09259    0.39087   -0.68224    0.02219    9.80631
373107.562700    0.26282    0.06979    0.40485   -0.68167    0.03813    9.80866
373107.572700    0.09620    0.00206    0.28877   -0.68753    0.04238    9.78904
373107.582700    0.13327    0.04664    0.31381   -0.67329    0.03050    9.80123
373107.592700    0.03787   -0.09196    0.27307   -0.68012    0.02898    9.80660
373107.602700    0.06767   -0.00258    0.29954   -0.69127    0.03612    9.79266
373107.612700    0.01633   -0.05781    0.32492   -0.68468    0.03381    9.80407
373107.622700   -0.07259    0.14244    0.17659   -0.68832    0.03961    9.80438
373107.632700    0.10388    0.13808    0.33501   -0.68940    0.03233    9.78768
373107.642700    0.17624    0.02424    0.29003   -0.68614    0.01967    9.78636
373107.652700    0.03994   -0.08056    0.36005   -0.68876    0.03277    9.80445
373107.662700    0.06738    0.09666    0.23102   -0.70627    0.03634    9.78839
373107.672700   -0.01639   -0.07586    0.16685   -0.68057    0.04234    9.79651
373107.682700    0.07483    0.02928    0.20271   -0.67368    0.02435    9.82018
373107.692700    0.09775    0.13556    0.09826   -0.67893    0.03382    9.80335
373107.702700    0.09471    0.10617    0.11620   -0.68767    0.03885    9.78584
373107.712700    0.22254    0.04807    0.28447   -0.67436    0.02505    9.80092
373107.722700    0.10096    0.02395    0.17922   -0.67661    0.04453    9.78507
373107.732700    0.06325   -0.04899    0.22168   -0.68410    0.03163    9.78554
373107.742700    0.07173   -0.00510    0.15149   -0.67614    0.02340    9.78274
373107.752700    0.14341    0.15791    0.46249   -0.67796    0.03803    9.80295
373107.762700    0.08125    0.04778    0.55686   -0.69386    0.04691    9.79399
373107.772700   -0.01289    0.19137    0.26734   -0.68421    0.02894    9.80160
373107.782700   -0.07483    0.12061    0.25416   -0.66990    0.03386    9.82259
373107.792700    0.12811    0.04240    0.37666   -0.67616    0.03879    9.80010
373107.802700    0.04859   -0.02871    0.45945   -0.68679    0.03652    9.79871
373107.812700    0.01358    0.07563    0.40147   -0.68650    0.03476    9.80834
373107.822700    0.04503    0.03506    0.33535   -0.68894    0.03118    9.79447
373107.832700    0.01793    0.02790    0.22397   -0.69795    0.03192    9.78556
373107.842700   -0.05604    0.10348    0.21818   -0.69313    0.03454    9.78981
373107.852700    0.01375    0.05689    0.11327   -0.69209    0.03987    9.79618
373107.862700    0.05243    0.02481    0.10468   -0.68790    0.03235    9.79339
373107.872700    0.08050    0.17584    0.38148   -0.68766    0.03135    9.79339
373107.882700   -0.10932   -0.04297    0.43058   -0.67911    0.02509    9.80200
373107.892700   -0.08371    0.07947    0.15441   -0.69103    0.02908    9.78985
373107.902700    0.07901   -0.17836    0.31112   -0.67899    0.02117    9.80810
373107.912700   -0.02366   -0.02636    0.21721   -0.67287    0.02282    9.81020
373107.922700    0.12680   -0.02074    0.33295   -0.69583    0.02580    9.78311
373107.932700   -0.11390    0.08245    0.52408   -0.68452    0.04458    9.79078
373107.942700    0.07368    0.11155    0.31369   -0.68642    0.01624    9.81135
373107.952700    0.15223    0.10668    0.28241   -0.67931    0.03668    9.79797
373107.962700    0.19057    0.09419    0.25010   -0.68941    0.03549    9.78230
373107.972700    0.34039    0.00527    0.15842   -0.67503    0.01997    9.79347
373107.982700    0.02263    0.08657    0.13327   -0.68618    0.03276    9.80586
373107.992700    0.02521    0.10113    0.14742   -0.69175    0.03057    9.78271
373108.002700   -0.05707   -0.07002    0.47997   -0.68669    0.01943    9.78851
373108.012700    0.05844   -0.10525    0.25159   -0.67142    0.01908    9.80489
373108.022700    0.14691    0.04079    0.37242   -0.67824    0.03627    9.79334
373108.032700   -0.04463   -0.02229    0.33105   -0.67564    0.02417    9.79880
373108.042700    0.18209    0.17452    0.32899   -0.66153    0.02105    9.82268
373108.052700    0.24374    0.15957    0.28493   -0.67174    0.03440    9.80618
373108.062700    0.07013   -0.01707    0.26568   -0.67710    0.03840    9.80866
373108.072700   -0.02389    0.17957    0.43253   -0.66991    0.02623    9.81552
373108.082700    0.07099   -0.02114    0.21171   -0.67376    0.03587    9.79726
373108.092700    0.06933    0.14547    0.41282   -0.67703    0.03823    9.77656
373108.102700   -0.01570    0.19097    0.21973   -0.66895    0.01652    9.79740
373108.112700    0.15017    0.19647    0.44267   -0.67932    0.02973    9.79660
373108.122700    0.17779    0.26620    0.33644   -0.68019    0.03872    9.79118
373108.132700   -0.10336    0.27668    0.39861   -0.67048    0.03890    9.79864
373108.142700    0.11425    0.15464    0.26047   -0.67411    0.03629    9.79904
373108.152700    0.18088    0.14633    0.14209   -0.69678    0.05413    9.78644
373108.162700    0.13631    0.07953   -0.00928   -0.68409    0.04696    9.80825
373108.172700   -0.02235    0.06480    0.30814   -0.68684    0.04444    9.80969
373108.182700    0.01748    0.22282    0.38021   -0.68708    0.03952    9.79474
373108.192700   -0.02544    0.05661    0.14467   -0.69271    0.03322    9.78911
373108.202700    0.09700    0.19807    0.34561   -0.69391    0.05246    9.80820
373108.212700    0.19882    0.13929    0.40795   -0.68670    0.03802    9.79154
373108.222700    0.09454    0.12611    0.15905   -0.68900    0.02887    9.78878
373108.232700    0.00642    0.11144    0.23795   -0.68136    0.03382    9.80584
373108.242700   -0.06927    0.08199    0.23159   -0.67804    0.03399    9.78622
373108.252700    0.06600    0.00521    0.11476   -0.67298    0.03141    9.79908
373108.262700   -0.02607   -0.05088    0.19463   -0.67009    0.03179    9.81120
373108.272700    0.14777    0.03994    0.08147   -0.68751    0.03726    9.79834
373108.282700    0.03260    0.01421    0.30224   -0.68414    0.03442    9.79051
373108.292700   -0.05936    0.21171    0.30224   -0.67139    0.02245    9.80805
373108.302700    0.10147    0.12662    0.40875   -0.68205    0.03354    9.81048
373108.312700    0.11740    0.17286    0.16180   -0.68081    0.02628    9.79128
373108.322700    0.06394    0.21400    0.32120   -0.67274    0.02321    9.79736
373108.332700    0.08875    0.11127    0.26431   -0.67373    0.02973    9.80052
373108.342700    0.20947   -0.01702    0.24620   -0.68440    0.02913    9.80090
373108.352700    0.01501    0.14353    0.16885   -0.68523    0.03431    9.78980
373108.362700    0.02876    0.13333    0.27571   -0.67064    0.02806    9.80908
373108.372700    0.05707    0.14954    0.23720   -0.68596    0.03299    9.79515
373108.382700   -0.04337    0.01438    0.29662   -0.68509    0.03578    9.79371
373108.392700   -0.05088    0.15859    0.27634   -0.66892    0.03073    9.80656
373108.402700    0.02292    0.06927    0.25342   -0.67928    0.02897    9.79768
373108.412700    0.08709    0.21314    0.31135   -0.69187    0.03894    9.79405
373108.422700   -0.01266    0.21555    0.42433   -0.69116    0.03092    9.80694
373108.432700    0.08084    0.10714    0.32974   -0.69201    0.03513    9.81298
373108.442700    0.03157    0.00000    0.48879   -0.70317    0.03917    9.78978
373108.452700    0.12066    0.11969    0.24173   -0.68551    0.03094    9.78983
373108.462700    0.16536    0.08938    0.12181   -0.68652    0.03189    9.80837
373108.472700    0.25955   -0.09414    0.32997   -0.68827    0.04774    9.79683
373108.482700    0.09053   -0.00544    0.23692   -0.68888    0.03618    9.79372
373108.492700    0.13029    0.03822    0.15596   -0.67821    0.03213    9.79587
373108.502700    0.05323   -0.02647    0.22162   -0.68928    0.04301    9.79402
373108.512700    0.03277    0.03180    0.38990   -0.68547    0.03234    9.79054
373108.522700   -0.05414    0.08640    0.20838   -0.67400    0.02424    9.80657
373108.532700    0.13063    0.03942    0.34452   -0.67365    0.03952    9.80785
373108.542700    0.12072    0.05678    0.37850   -0.68903    0.04241    9.78787
373108.552700    0.15625    0.13505    0.22930   -0.67997    0.02881    9.79653
373108.562700    0.27937    0.13854    0.46902   -0.67169    0.03423    9.81252
373108.572700   -0.01725    0.08084    0.28201   -0.68551    0.03791    9.79718
373108.582700   -0.03088   -0.04962    0.11751   -0.67608    0.02817    9.78583
373108.592700    0.03054    0.10783    0.21113   -0.67546    0.03078    9.80506
373108.602700    0.19366   -0.08990    0.38285   -0.68327    0.03120    9.79474
373108.612700    0.05197   -0.06549    0.31060   -0.67588    0.01568    9.79450
373108.622700    0.09878   -0.04612    0.17435   -0.67288    0.02631    9.78942
373108.632700   -0.02590    0.14908    0.26282   -0.67663    0.04246    9.80175
373108.642700    0.06916   -0.00745    0.23944   -0.68612    0.03109    9.79260
373108.652700    0.01960   -0.01175    0.36497   -0.68395    0.02422    9.80549
373108.662700   -0.04131    0.05139    0.18787   -0.67918    0.02666    9.81152
373108.672700    0.13992    0.07151    0.26900   -0.69172    0.03659    9.79220
373108.682700    0.15516    0.08274    0.33994   -0.68199    0.03286    9.79472
373108.692700   -0.04544    0.07574    0.35569   -0.68396    0.02798    9.80938
373108.702700    0.03862    0.03042    0.32177   -0.69000    0.04108    9.80179
373108.712700    0.19882    0.04291    0.09150   -0.69661    0.03382    9.77297
373108.722700    0.09717    0.16066    0.26224   -0.69582    0.02872    9.80226
373108.732700    0.05901    0.03426    0.20592   -0.69042    0.04341    9.79036
373108.742700    0.13825    0.01043    0.12662   -0.68414    0.03770    9.79788
373108.752700    0.07741    0.06772    0.21933   -0.69082    0.02414    9.79552
373108.762700   -0.05294    0.26728    0.26958   -0.68947    0.03201    9.79543
373108.772700    0.20414   -0.12107    0.25199   -0.67699    0.03200    9.79972
373108.782700    0.03312    0.25571    0.32470   -0.68762    0.03210    9.80435
373108.792700   -0.05076   -0.06950    0.25846   -0.69107    0.02585    9.81263
373108.802700    0.19933    0.11293    0.21876   -0.67939    0.03739    9.78362
373108.812700    0.08589    0.05701    0.32366   -0.68308    0.02074    9.79374
373108.822700    0.04589    0.15945    0.12754   -0.67717    0.02659    9.79797
373108.832700    0.13035    0.01599    0.18123   -0.68727    0.03535    9.80112
373108.842700    0.19274    0.10972    0.14593   -0.68547    0.03354    9.79187
373108.852700    0.20965    0.07322    0.32481   -0.68170    0.02474    9.80441
373108.862700    0.03306   -0.05701    0.25760   -0.68177    0.02949    9.81080
373108.872700    0.06262    0.17298    0.37769   -0.69705    0.03891    9.78648
373108.882700    0.13608    0.06091    0.14610   -0.68404    0.02321    9.79337
373108.892700    0.00298    0.13361    0.35185   -0.69516    0.02678    9.79621
373108.902700    0.04773   -0.06990    0.34922   -0.68771    0.03071    9.79761
373108.912700    0.15350    0.14960    0.24729   -0.67760    0.01851    9.79696
373108.922700    0.13728    0.10611    0.08755   -0.68433    0.01568    9.79629
373108.932700    0.18707    0.02292    0.34188   -0.68924    0.03563    9.79221
373108.942700    0.11190    0.00728    0.24591   -0.69651    0.03554    9.80042
373108.952700    0.05277    0.10428    0.22116   -0.69238    0.02730    9.80369
373108.962700   -0.05632    0.09024    0.39328   -0.68678    0.03277    9.80900
373108.972700    0.14198    0.07133    0.09746   -0.69242    0.04321    9.80071
373108.982700    0.22368    0.06801    0.20099   -0.69305    0.03035    9.79369
373108.992700    0.04870    0.10583    0.30172   -0.67883    0.02473    9.80976
373109.002700    0.01346    0.17704    0.39838   -0.68559    0.03618    9.80075
373109.012700    0.05265    0.17693    0.31404   -0.68871    0.02900    9.78690
373109.022700    0.02424    0.03197    0.29129   -0.69097    0.02520    9.80014
373109.032700    0.12651    0.15189    0.21113   -0.68381    0.02948    9.80045
373109.042700    0.01054    0.12141    0.40674   -0.68651    0.03522    9.79435
373109.052700    0.09689    0.06474    0.11912   -0.68640    0.01834    9.79770
373109.062700    0.13625    0.04990    0.42972   -0.68198    0.02741    9.80154
373109.072700    0.13115    0.11637    0.15029   -0.68102    0.03053    9.79224
373109.082700    0.02578   -0.08382    0.15350   -0.69198    0.04138    9.79502
373109.092700    0.16278   -0.08193    0.25978   -0.68251    0.02366    9.79837
373109.102700    0.04830    0.02807    0.21692   -0.68298    0.02431    9.80549
373109.112700    0.05959   -0.04354    0.22002   -0.67803    0.02357    9.79944
373109.122700   -0.06091   -0.11946    0.31495   -0.67742    0.03515    9.78899
373109.132700    0.07122    0.06182    0.25995   -0.67305    0.03292    9.80290
373109.142700    0.06136    0.10273    0.07930   -0.68543    0.03594    9.80540
373109.152700   -0.02464   -0.07454    0.00539   -0.69053    0.02651    9.79193
373109.162700   -0.05180    0.11986    0.25949   -0.68728    0.04451    9.80996
373109.172700    0.16885    0.14834    0.32618   -0.67762    0.03331    9.79541
373109.182700    0.12926    0.11431    0.38543   -0.69614    0.03454    9.79260
373109.192700    0.09591    0.17361    0.16793   -0.68685    0.02692    9.79228
373109.202700    0.12267    0.14135    0.11975   -0.68111    0.04120    9.80356
373109.212700    0.07546    0.01381    0.02590   -0.67952    0.03487    9.78971
373109.222700   -0.00579    0.08818    0.27496   -0.68388    0.04162    9.79429
373109.232700   -0.03982    0.05392    0.16283   -0.68222    0.02530    9.81083
373109.242700    0.07643   -0.00710    0.28980   -0.69050    0.02876    9.81046
373109.252700    0.06641    0.08359    0.18971   -0.68447    0.03732    9.79397
373109.262700    0.03827    0.17292    0.27296   -0.67916    0.01598    9.80127
373109.272700    0.22133    0.06411    0.28086   -0.68741    0.02092    9.80267
373109.282700    0.17086    0.05288    0.13465   -0.67995    0.03421    9.79363
373109.292700    0.20397    0.12811    0.33621   -0.68833    0.03773    9.78970
373109.302700    0.09798    0.13121    0.11602   -0.68243    0.03184    9.79864
373109.312700   -0.03071    0.03604    0.17080   -0.68751    0.03438    9.80291
373109.322700    0.05867    0.30012    0.32618   -0.68538    0.04263    9.78215
373109.332700    0.10657    0.23646   -0.00195   -0.68319    0.03147    9.79544
373109.342700   -0.02945    0.16644    0.32034   -0.67411    0.02906    9.80793
373109.352700   -0.02676    0.11425    0.47309   -0.68374    0.03693    9.80360
373109.362700   -0.00705    0.09202    0.16644   -0.68166    0.02762    9.79155
373109.372700    0.12657    0.02544    0.40113   -0.68564    0.02436    9.80051
373109.382700    0.10199    0.15521    0.36366   -0.68611    0.02847    9.80903
373109.392700    0.18747   -0.04217    0.26677   -0.69756    0.03654    9.78580
373109.402700    0.15287    0.02997    0.23858   -0.68292    0.02671    9.80048
373109.412700    0.09081    0.06176    0.22408   -0.67087    0.02536    9.80654
373109.422700    0.09288    0.23428    0.25204   -0.68253    0.04181    9.79713
373109.432700    0.07007   -0.10984    0.23090   -0.68627    0.03656    9.79934
373109.442700    0.02034   -0.05105    0.23165   -0.68572    0.02341    9.79124
373109.452700    0.18478    0.04102    0.21537   -0.68326    0.03431    9.80648
373109.462700    0.12256   -0.01925    0.15997   -0.68750    0.03630    9.79649
373109.472700   -0.06165    0.17624    0.34973   -0.69242    0.02303    9.79303
373109.482700   -0.08881    0.14141    0.43797   -0.69000    0.02726    9.80368
373109.492700    0.15435    0.07368    0.32000   -0.69158    0.02981    9.79797
373109.502700    0.06520   -0.09356    0.15372   -0.69710    0.03234    9.79689
373109.512700   -0.01536   -0.08697    0.40216   -0.68076    0.02450    9.79764
373109.522700    0.03403   -0.07403    0.25078   -0.67909    0.02801    9.80581
373109.532700    0.05518    0.02974    0.43075   -0.69003    0.03624    9.78828
373109.542700    0.12089    0.16112    0.09551   -0.69729    0.02936    9.79406
373109.552700    0.05369    0.07397    0.35243   -0.68191    0.01570    9.80662
373109.562700   -0.11138    0.18398    0.22872   -0.68630    0.03637    9.79683
373109.572700    0.03214   -0.00854    0.35965   -0.69396    0.02961    9.78728
373109.582700    0.08491    0.15762    0.33266   -0.67892    0.02457    9.80333
373109.592700    0.11436    0.04429    0.25479   -0.68303    0.03256    9.80257
373109.602700    0.05884    0.23554    0.16960   -0.68941    0.03376    9.78651
373109.612700    0.07781    0.10537    0.13957   -0.67823    0.02903    9.78761
373109.622700    0.15350   -0.02687    0.31077   -0.68220    0.02991    9.80687
373109.632700    0.26935    0.05323    0.43906   -0.69109    0.03538    9.79043
373109.642700    0.19406    0.08096    0.10032   -0.68039    0.03351    9.78828
373109.652700    0.14834    0.24230    0.28384   -0.68035    0.02607    9.79726
373109.662700   -0.03489    0.13505    0.19234   -0.67303    0.03067    9.79543
373109.672700    0.09861    0.00917    0.25743   -0.67610    0.03492    9.78650
373109.682700   -0.04715    0.08772    0.09746   -0.67581    0.02901    9.79402
373109.692700    0.19819    0.01564    0.43098   -0.68396    0.03476    9.81004
373109.702700    0.09494   -0.01862    0.41299   -0.69029    0.04080    9.79681
373109.712700    0.06675    0.16667    0.22019   -0.69699    0.02853    9.79441
373109.722700    0.07277    0.16622    0.14387   -0.68453    0.03111    9.79508
373109.732700   -0.00052    0.20151    0.28986   -0.69169    0.02998    9.80260
373109.742700    0.25628    0.14771    0.22878   -0.68737    0.03747    9.79539
373109.752700    0.02200   -0.00481    0.28883   -0.68630    0.02319    9.80408
373109.762700    0.09666    0.06629    0.35879   -0.68916    0.03006    9.80011
373109.772700    0.25210    0.08251    0.41110   -0.69230    0.02227    9.79162
373109.782700   -0.02578   -0.04801    0.33197   -0.69091    0.02738    9.79192
373109.792700    0.13333    0.12256    0.26362   -0.69052    0.01741    9.81162
373109.802700    0.07053    0.16455    0.29192   -0.67656    0.02738    9.79867
373109.812700    0.29691    0.09047    0.18409   -0.68651    0.02530    9.78194
373109.822700    0.17017    0.09270    0.28797   -0.68891    0.02816    9.79691
373109.832700    0.04332    0.01982    0.30057   -0.67853    0.04004    9.79929
373109.842700    0.08159    0.16599    0.36830   -0.68686    0.02944    9.79510
373109.852700    0.00395   -0.05632    0.10508   -0.68878    0.03098    9.78513
373109.862700    0.01152   -0.12410    0.32080   -0.67899    0.02626    9.80120
373109.872700    0.03816   -0.12416    0.24992   -0.68877    0.03763    9.79612
373109.882700    0.12811    0.07002    0.20008   -0.68617    0.03181    9.79652
373109.892700    0.06623    0.14181    0.56305   -0.67753    0.03218    9.80113
373109.902700    0.24660    0.13539    0.26012   -0.66897    0.03419    9.79932
373109.912700    0.09798    0.11379    0.32544   -0.68001    0.03762    9.78826
373109.922700    0.06967    0.11058    0.14238   -0.68645    0.01563    9.80021
373109.932700    0.06698    0.27353    0.37156   -0.67456    0.03810    9.81070
373109.942700    0.18982    0.06629    0.19297   -0.69306    0.03460    9.79437
373109.952700    0.17510    0.12817    0.22151   -0.68471    0.02852    9.80011
373109.962700    0.05157    0.07729    0.28505   -0.68273    0.03495    9.79970
373109.972700    0.11425    0.01679    0.15447   -0.68539    0.02592    9.79942
373109.982700    0.01650    0.00963    0.28717   -0.69444    0.04033    9.79860
373109.992700    0.14994    0.06881    0.26207   -0.69239    0.02550    9.79087
373110.002700    0.00155    0.04807    0.15487   -0.68093    0.03277    9.80720
373110.012700    0.06715    0.14817    0.29473   -0.69076    0.04099    9.79323
373110.022700    0.15006    0.06194    0.29610   -0.68713    0.02901    9.78585
373110.032700   -0.00309    0.03317    0.36503   -0.67909    0.02323    9.80871
373110.042700    0.00957    0.07024    0.22655   -0.69762    0.03645    9.78971
373110.052700    0.07128    0.24276    0.44771   -0.69023    0.03892    9.78361
373110.062700    0.12754    0.06950    0.24047   -0.68472    0.02529    9.80013
373110.072700    0.25227    0.06709    0.12760   -0.67642    0.03175    9.80685
373110.082700    0.14078   -0.01937    0.22741   -0.68060    0.02733    9.79191
373110.092700    0.02790    0.10210    0.26345   -0.67858    0.02902    9.79082
373110.102700    0.10858    0.03163    0.38761   -0.67399    0.03437    9.80361
373110.112700    0.17521    0.02578    0.22907   -0.67807    0.02953    9.80722
373110.122700    0.03804    0.02097    0.35449   -0.69062    0.02585    9.78623
373110.132700    0.06979    0.21159    0.19039   -0.67892    0.01743    9.81266
373110.142700   -0.00149    0.06274    0.05626   -0.68096    0.03206    9.80257
373110.152700   -0.04234    0.28190    0.27788   -0.68301    0.02541    9.79761
373110.162700    0.06778   -0.02395    0.30166   -0.68574    0.02525    9.78730
373110.172700    0.20873    0.03994    0.13298   -0.68326    0.02546    9.80548
373110.182700    0.10852    0.17429    0.23193   -0.68519    0.03004    9.79724
373110.192700    0.16782   -0.01203    0.33868   -0.68230    0.03358    9.79579
373110.202700    0.05094    0.13791    0.24460   -0.68206    0.03006    9.79937
373110.212700    0.10600    0.04790    0.12554   -0.68473    0.02112    9.80123
373110.222700    0.13711   -0.00487    0.24970   -0.68332    0.03212    9.78475
373110.232700    0.04177    0.06486    0.22122   -0.68294    0.02658    9.80227
373110.242700    0.14502    0.17269    0.19074   -0.68188    0.03701    9.79824
373110.252700    0.06343    0.13482    0.27508   -0.68319    0.04286    9.79641
373110.262700    0.29123    0.10531    0.42009   -0.68682    0.03154    9.79545
373110.272700    0.13035    0.05810    0.28814   -0.68407    0.03293    9.81148
373110.282700   -0.15470    0.14335    0.23680   -0.69759    0.03430    9.80578
373110.292700    0.13803    0.26471    0.13728   -0.68248    0.03286    9.78758
373110.302700    0.12135    0.20667    0.36910   -0.68996    0.02838    9.80796
373110.312700    0.13178    0.17366    0.22294   -0.67491    0.02884    9.80222
373110.322700    0.17876   -0.06595    0.18266   -0.68850    0.03935    9.78470
373110.332700    0.11849    0.05569    0.22259   -0.68752    0.02593    9.80263
373110.342700    0.09322    0.16037    0.17991   -0.67525    0.03638    9.80215
373110.352700    0.01324   -0.02487    0.24322   -0.68819    0.03063    9.78725
373110.362700    0.05563    0.01249    0.26390   -0.68374    0.03586    9.79719
373110.372700    0.06732   -0.02871    0.41385   -0.68630    0.02774    9.81118
373110.382700    0.06211    0.09460    0.32550   -0.68866    0.03630    9.80967
373110.392700    0.14765    0.11115    0.25921   -0.69204    0.03254    9.79866
373110.402700    0.07254   -0.08829    0.50306   -0.68292    0.03039    9.79617
373110.412700    0.21452    0.07729    0.35913   -0.67889    0.03340    9.80434
373110.422700    0.09660   -0.05420    0.31272   -0.68292    0.03187    9.80293
373110.432700    0.10244   -0.12187    0.25118   -0.68327    0.02637    9.80013
373110.442700    0.08107    0.14742    0.14118   -0.68057    0.02362    9.80407
373110.452700    0.00367    0.00688    0.43614   -0.69366    0.03344    9.80009
373110.462700    0.16541    0.14759    0.31461   -0.69105    0.03734    9.79042
373110.472700    0.01352    0.09511    0.19263   -0.69165    0.02619    9.80833
373110.482700    0.09677    0.24580    0.34211   -0.69006    0.02871    9.79654
373110.492700    0.10262    0.17000    0.26224   -0.68464    0.03553    9.78720
373110.502700    0.20512    0.05867    0.24878   -0.67545    0.02718    9.79832
373110.512700    0.01690    0.22059    0.15693   -0.68426    0.03180    9.80684
373110.522700    0.06119    0.17727    0.21795   -0.68217    0.03388    9.78828
373110.532700   -0.09872    0.07998    0.24895   -0.68789    0.02925    9.79760
373110.542700    0.22448   -0.12342    0.15017   -0.68596    0.03200    9.80687
373110.552700    0.15430    0.16748    0.27198   -0.68831    0.03086    9.80508
373110.562700   -0.10709    0.18507    0.14186   -0.68976    0.03872    9.78754
373110.572700    0.14249    0.03426    0.37632   -0.68435    0.02529    9.78944
373110.582700    0.09345    0.10972    0.30063   -0.68174    0.03598    9.79825
373110.592700    0.30911   -0.02498    0.41992   -0.70031    0.04155    9.79218
373110.602700   -0.00802   -0.02212    0.31696   -0.68848    0.02893    9.79369
373110.612700   -0.02246   -0.00269    0.42284   -0.68299    0.03283    9.81290
373110.622700    0.16593    0.11465    0.14834   -0.68545    0.02880    9.80189
373110.632700    0.11568    0.15940    0.16049   -0.68900    0.02036    9.79161
373110.642700    0.00882   -0.00097    0.08182   -0.68840    0.02210    9.80124
373110.652700   -0.00401    0.16759    0.21944   -0.67372    0.03766    9.79645
373110.662700    0.09654   -0.03329    0.36211   -0.67357    0.02423    9.79157
373110.672700    0.09568    0.06245    0.34652   -0.67874    0.02317    9.78909
373110.682700   -0.07288    0.04882    0.39563   -0.67611    0.03249    9.80470
373110.692700    0.11459    0.00378    0.24265   -0.69173    0.03761    9.79540
373110.702700    0.01375   -0.00544    0.23090   -0.68514    0.03199    9.78261
373110.712700    0.06377    0.23549    0.34400   -0.68518    0.02389    9.80299
373110.722700   -0.00086    0.22168    0.24884   -0.68112    0.03240    9.79435
373110.732700    0.11803    0.03426    0.26144   -0.67853    0.03216    9.78866
373110.742700    0.04939    0.07322    0.09780   -0.68937    0.03515    9.78793
373110.752700    0.02974   -0.02756    0.42387   -0.68700    0.02664    9.80584
373110.762700    0.25485    0.11270    0.25944   -0.69246    0.03641    9.80076
373110.772700    0.07758    0.17882    0.33971   -0.68739    0.03970    9.80107
373110.782700   -0.05094   -0.02235    0.34652   -0.69218    0.02098    9.80945
373110.792700    0.03678    0.01472    0.25233   -0.68401    0.02902    9.80261
373110.802700    0.33134    0.15768    0.30980   -0.69562    0.03503    9.78651
373110.812700   -0.09328    0.03409    0.08417   -0.68650    0.02057    9.79232
373110.822700    0.10399   -0.06555    0.38125   -0.68246    0.02649    9.80976
373110.832700    0.11236    0.10164    0.11832   -0.69040    0.04726    9.79532
373110.842700    0.07569   -0.05134    0.24265   -0.68434    0.03761    9.79433
373110.852700    0.01060   -0.01713    0.37792   -0.68676    0.03349    9.81077
373110.862700    0.10244    0.04990    0.17693   -0.67961    0.03151    9.79758
373110.872700    0.05082   -0.05374    0.21222   -0.69946    0.02748    9.78766
373110.882700    0.02756   -0.06921    0.22047   -0.68568    0.03202    9.79046
373110.892700    0.12743    0.04395    0.20581   -0.67822    0.03499    9.79220
373110.902700   -0.04778    0.08657    0.25193   -0.67377    0.03038    9.79508
373110.912700    0.07815   -0.05392    0.13264   -0.66977    0.02912    9.79117
373110.922700    0.14519    0.03793    0.38090   -0.69014    0.02365    9.80907
373110.932700    0.14570    0.12135    0.23342   -0.68866    0.03911    9.80287
373110.942700    0.09792    0.05363    0.21463   -0.68737    0.03971    9.78717
373110.952700   -0.00894    0.23325    0.22718   -0.69280    0.02028    9.79732
373110.962700    0.11436    0.23233    0.23824   -0.67855    0.02710    9.81437
373110.972700   -0.01089    0.03552    0.18042   -0.67964    0.02552    9.79013
373110.982700   -0.00481    0.20523    0.33134   -0.69007    0.02688    9.80012
