Time              Gyro_X     Gyro_Y     Gyro_Z    Accel_X    Accel_Y    Accel_Z
373422.002700    0.05025    0.11900    0.33014    0.37703   -0.06374    9.81641
373422.012700    0.07941    0.10961    0.22179    0.37817   -0.07026    9.82181
373422.022700    0.19744    0.03919    0.27880    0.37371   -0.06154    9.82246
373422.032700    0.16140    0.22592    0.20724    0.36584   -0.05752    9.80996
373422.042700    0.05432    0.03633    0.17441    0.36634   -0.06700    9.79969
373422.052700    0.15739    0.00848    0.29416    0.37779   -0.06538    9.81250
373422.062700    0.07913    0.03449    0.14954    0.38126   -0.06887    9.81252
373422.072700    0.02532    0.06956    0.20678    0.37016   -0.05963    9.81496
373422.082700    0.08056    0.05025    0.04990    0.37537   -0.06619    9.81394
373422.092700    0.08021    0.09185    0.11797    0.37401   -0.07054    9.82004
373422.102700    0.05850    0.11946    0.39391    0.37899   -0.06060    9.81532
373422.112700    0.10921    0.10371    0.24609    0.36293   -0.06725    9.81325
373422.122700    0.12760    0.16536    0.30774    0.36987   -0.06992    9.82004
373422.132700   -0.01828   -0.12519    0.26012    0.37000   -0.05656    9.81708
373422.142700    0.03191    0.11127    0.15086    0.36597   -0.06656    9.81860
373422.152700    0.18100   -0.02252    0.33100    0.37266   -0.06165    9.81212
373422.162700    0.03965    0.08337    0.24001    0.37150   -0.07031    9.81862
373422.172700    0.09505    0.07930    0.24878    0.37263   -0.06543    9.81679
373422.182700    0.13636   -0.15430    0.24906    0.37992   -0.06513    9.80500
373422.192700    0.24339   -0.09861    0.13075    0.38069   -0.06627    9.82642
373422.202700    0.18048    0.11167    0.26774    0.37398   -0.06982    9.81896
373422.212700   -0.01203    0.06022    0.18598    0.36557   -0.05532    9.80246
373422.222700    0.19985    0.03105    0.25468    0.37571   -0.06987    9.81290
373422.232700    0.14799    0.06142    0.32355    0.37708   -0.06467    9.82070
373422.242700    0.23927    0.11253    0.19801    0.37602   -0.07220    9.81399
373422.252700    0.10285    0.06692    0.40497    0.36705   -0.06182    9.80856
373422.262700    0.06864   -0.03902    0.28167    0.36094   -0.07002    9.81756
373422.272700    0.03638    0.11872    0.15625    0.37499   -0.06820    9.82894
373422.282700   -0.02727    0.26350    0.16100    0.37548   -0.05700    9.80352
373422.292700    0.17458    0.17624    0.27015    0.37922   -0.08432    9.82265
373422.302700    0.13636    0.12416    0.18701    0.36536   -0.07234    9.81615
373422.312700    0.22815    0.13505    0.19968    0.36736   -0.06608    9.81038
373422.322700    0.12680    0.20581    0.18484    0.36932   -0.06340    9.81143
373422.332700   -0.01054    0.05861    0.35552    0.37477   -0.07554    9.81615
373422.342700    0.00052    0.16198    0.26551    0.37368   -0.07345    9.82078
373422.352700   -0.08755   -0.03541    0.35294    0.37019   -0.06384    9.81393
373422.362700    0.06199    0.14301    0.14003    0.37770   -0.06332    9.81783
373422.372700    0.14324   -0.05386    0.13379    0.36959   -0.05812    9.82172
373422.382700    0.16461    0.18564    0.50776    0.37704   -0.06378    9.81106
373422.392700    0.01409   -0.02137    0.31902    0.36534   -0.05940    9.80676
373422.402700    0.23308    0.13379    0.28476    0.37461   -0.06741    9.81217
373422.412700    0.23657    0.20873    0.49509    0.37759   -0.05571    9.81171
373422.422700    0.10319    0.08210    0.24889    0.36629   -0.06450    9.81037
373422.432700    0.19498    0.15693    0.17441    0.36661   -0.06925    9.81184
373422.442700    0.10966   -0.11803    0.38508    0.37051   -0.07512    9.82436
373422.452700   -0.06578    0.22128    0.32676    0.37412   -0.05765    9.81209
373422.462700    0.02527    0.04177    0.36744    0.37301   -0.06099    9.82816
373422.472700    0.15378    0.01381    0.30481    0.36674   -0.06270    9.81463
373422.482700    0.02848    0.12897    0.24219    0.37072   -0.05548    9.81778
373422.492700   -0.07609    0.04899    0.21457    0.37399   -0.07212    9.81328
373422.502700    0.28258    0.16192    0.25531    0.36951   -0.07111    9.81613
373422.512700   -0.09047    0.18587    0.33787    0.37731   -0.06218    9.81140
373422.522700    0.16570    0.05191    0.49532    0.37195   -0.06513    9.80644
373422.532700    0.05031    0.24780    0.15911    0.37080   -0.07098    9.81684
373422.542700   -0.04395    0.15178    0.28407    0.37260   -0.07479    9.81723
373422.552700    0.14736    0.14278    0.30413    0.37016   -0.06789    9.80896
373422.562700    0.05827    0.17487    0.23835    0.36837   -0.06343    9.81785
373422.572700    0.01868   -0.07047    0.23566    0.37476   -0.06663    9.81679
373422.582700   -0.01759    0.23222    0.34206    0.37561   -0.07042    9.81148
373422.592700    0.05540   -0.05993    0.00361    0.37098   -0.06346    9.81641
373422.602700    0.01793    0.00922    0.21211    0.37713   -0.06897    9.81645
373422.612700    0.05214    0.08147    0.25216    0.36231   -0.07108    9.81578
373422.622700    0.25090    0.19257    0.18747    0.37412   -0.06359    9.80643
373422.632700    0.15774    0.06939    0.29639    0.36708   -0.06585    9.80824
373422.642700    0.13808    0.12605    0.20546    0.37881   -0.06541    9.82677
373422.652700    0.10067    0.15659    0.26723    0.36602   -0.06586    9.80789
373422.662700    0.13717    0.17538    0.33633    0.38146   -0.06120    9.81853
373422.672700    0.11207    0.27605    0.25955    0.37807   -0.07464    9.82007
373422.682700    0.12101    0.17492    0.29318    0.37734   -0.06134    9.80462
373422.692700    0.10393    0.18701    0.25651    0.37521   -0.06403    9.80751
373422.702700    0.03398    0.03764    0.29800    0.37052   -0.06627    9.81145
373422.712700    0.01421    0.13619    0.28149    0.38077   -0.05795    9.81101
373422.722700    0.04091    0.07660    0.35443    0.36877   -0.05970    9.81103
373422.732700   -0.01937    0.12765    0.09305    0.36910   -0.06419    9.81572
373422.742700    0.18913    0.10691    0.11866    0.38779   -0.07698    9.81865
373422.752700    0.37466    0.09815    0.16856    0.36775   -0.06661    9.81574
373422.762700    0.07506    0.11390    0.23778    0.38050   -0.07057    9.81504
373422.772700   -0.02779    0.06681    0.30413    0.38095   -0.06931    9.80861
373422.782700    0.12897    0.09895    0.33747    0.36707   -0.06141    9.80891
373422.792700    0.07116    0.06784    0.32046    0.36906   -0.06073    9.80998
373422.802700    0.05775    0.17533    0.01060    0.38083   -0.07238    9.81112
373422.812700    0.13201    0.05128    0.30997    0.37199   -0.06954    9.82110
373422.822700    0.22345   -0.03793    0.13184    0.37786   -0.06011    9.81709
373422.832700    0.05724   -0.00407    0.18449    0.38961   -0.06432    9.82531
373422.842700    0.12084   -0.01650    0.24832    0.37649   -0.06576    9.81821
373422.852700   -0.01381    0.10886    0.40147    0.35901   -0.06495    9.80504
373422.862700    0.06600    0.14616    0.23021    0.37840   -0.06859    9.80504
373422.872700    0.10577    0.21194    0.08858    0.38115   -0.06874    9.82358
373422.882700    0.02871   -0.10181    0.21337    0.37437   -0.05937    9.80782
373422.892700   -0.01679    0.12336    0.01696    0.36761   -0.06105    9.81320
373422.902700    0.01421    0.07007    0.04595    0.37156   -0.07691    9.81082
373422.912700    0.05540    0.14186    0.00527    0.37315   -0.05958    9.82031
373422.922700    0.16404   -0.16071    0.21921    0.36959   -0.05101    9.80633
373422.932700    0.00625   -0.09505    0.20157    0.36201   -0.06802    9.81218
373422.942700    0.02034    0.04503    0.21623    0.37307   -0.07718    9.81974
373422.952700   -0.01197   -0.06589    0.15017    0.36954   -0.06176    9.81712
373422.962700   -0.02172    0.10159    0.11201    0.36912   -0.06835    9.81218
373422.972700    0.10852    0.04859    0.20942    0.36776   -0.06203    9.81284
373422.982700    0.01003    0.03701    0.08388    0.36050   -0.06907    9.81434
373422.992700   -0.00567    0.17126    0.30092    0.37211   -0.06216    9.81070
373423.002700    0.03071    0.16919    0.23119    0.37321   -0.07143    9.81541
373423.012700   -0.02510   -0.03793    0.33953    0.37060   -0.06993    9.81897
373423.022700    0.15395    0.00223    0.33232    0.37772   -0.05543    9.80457
373423.032700    0.09843    0.13487    0.08887    0.36903   -0.06623    9.81145
373423.042700    0.16702    0.18168    0.16421    0.37005   -0.06471    9.82250
373423.052700    0.21045    0.16415    0.31043    0.36377   -0.06029    9.81070
373423.062700    0.07460    0.03386    0.16450    0.37842   -0.06028    9.80604
373423.072700    0.23010    0.10657    0.14318    0.37748   -0.06905    9.82501
373423.082700    0.02785   -0.00745    0.24706    0.37342   -0.06616    9.81893
373423.092700    0.00957    0.23084    0.20575    0.37623   -0.05619    9.82028
373423.102700    0.22941   -0.09654    0.20655    0.37376   -0.05883    9.81316
373423.112700    0.21010   -0.02670    0.20724    0.37371   -0.06118    9.81533
373423.122700    0.17063   -0.22231    0.13338    0.37182   -0.05685    9.81493
373423.132700    0.13218    0.05879    0.37168    0.36636   -0.06888    9.81897
373423.142700    0.08497    0.05684    0.42072    0.37588   -0.06993    9.82502
373423.152700    0.03312    0.08440    0.15264    0.37776   -0.05332    9.82809
373423.162700    0.04297    0.10691    0.28333    0.37071   -0.06274    9.80501
373423.172700   -0.08021    0.17229    0.42072    0.38185   -0.06697    9.80858
373423.182700    0.04589    0.10880    0.30762    0.37594   -0.06069    9.80533
373423.192700    0.09213   -0.13121    0.46381    0.37208   -0.07173    9.80828
373423.202700    0.08755   -0.00361    0.21583    0.36507   -0.07070    9.81185
373423.212700    0.03065    0.10399    0.28069    0.37297   -0.06575    9.81857
373423.222700    0.15080    0.10984    0.48793    0.36572   -0.06294    9.82891
373423.232700    0.00911   -0.09311    0.22861    0.36689   -0.06867    9.81433
373423.242700    0.13293    0.18472    0.41700    0.37426   -0.06950    9.82182
373423.252700    0.02074   -0.05512    0.37827    0.37166   -0.06311    9.81820
373423.262700    0.13659   -0.00315    0.19618    0.37150   -0.05731    9.80424
373423.272700    0.09637    0.19074    0.42932    0.37776   -0.06918    9.81681
373423.282700    0.10686    0.07987    0.34383    0.37262   -0.07156    9.81791
373423.292700    0.08405    0.11092    0.30860    0.36286   -0.05693    9.80996
373423.302700    0.02779    0.13820    0.29404    0.37189   -0.06597    9.81251
373423.312700    0.00602   -0.01770    0.35735    0.38029   -0.06893    9.81752
373423.322700    0.11150    0.05397    0.32951    0.35811   -0.05867    9.81926
373423.332700   -0.03031    0.11385    0.22489    0.37046   -0.06837    9.81111
373423.342700    0.12164    0.22414    0.29656    0.37523   -0.07023    9.82040
373423.352700    0.07930    0.10199    0.46186    0.37150   -0.05924    9.82031
373423.362700    0.03638   -0.08491    0.18558    0.37902   -0.06860    9.81430
373423.372700   -0.06572   -0.03478    0.17808    0.37000   -0.06868    9.81468
373423.382700    0.21400    0.04687    0.19526    0.38238   -0.08530    9.81445
373423.392700    0.01856   -0.10273    0.10227    0.37164   -0.06489    9.80288
373423.402700    0.04343    0.21704    0.42112    0.36107   -0.06769    9.80506
373423.412700    0.10073   -0.02229    0.08864    0.37244   -0.07132    9.82076
373423.422700    0.01495    0.17951    0.30000    0.37389   -0.06785    9.82180
373423.432700   -0.03163    0.00556    0.10170    0.37332   -0.06791    9.81503
373423.442700    0.06755    0.09855    0.35076    0.37052   -0.06716    9.81574
373423.452700    0.00115    0.05999    0.46009    0.37492   -0.06032    9.81104
373423.462700    0.08921   -0.01879    0.37976    0.36118   -0.06628    9.80290
373423.472700   -0.00138    0.16977    0.22042    0.36700   -0.06600    9.80503
373423.482700    0.13321    0.09276    0.21641    0.36467   -0.06308    9.81856
373423.492700    0.11706    0.14209    0.33799    0.37049   -0.06405    9.82070
373423.502700    0.08308    0.09586    0.19945    0.36430   -0.07313    9.81223
373423.512700   -0.00040    0.27674    0.25560    0.36415   -0.07186    9.81186
373423.522700    0.08858    0.26723    0.18157    0.38038   -0.05885    9.82421
373423.532700    0.07809    0.07666    0.28241    0.37847   -0.06032    9.81210
373423.542700    0.12731    0.14496    0.23955    0.37636   -0.07504    9.81615
373423.552700   -0.07689   -0.04784    0.26855    0.36961   -0.06525    9.81073
373423.562700    0.00218   -0.09523    0.31725    0.37275   -0.07290    9.81221
373423.572700    0.06222    0.09081    0.39007    0.37117   -0.06064    9.80997
373423.582700    0.05787    0.14312    0.30825    0.37249   -0.06508    9.82606
373423.592700    0.06595    0.00859    0.17063    0.36119   -0.06172    9.81856
373423.602700    0.00413    0.26070    0.26373    0.36685   -0.06698    9.80896
373423.612700    0.07059    0.09242    0.21452    0.38818   -0.07054    9.81324
373423.622700    0.05787    0.00710    0.12061    0.36818   -0.06958    9.82397
373423.632700    0.15092   -0.00361    0.24448    0.38458   -0.06024    9.80603
373423.642700    0.08858    0.04887    0.11253    0.38439   -0.07413    9.81149
373423.652700    0.00183    0.10565    0.29026    0.36561   -0.06558    9.81467
373423.662700    0.10382    0.25296    0.17704    0.36388   -0.06473    9.81859
373423.672700    0.04389    0.24276    0.36440    0.36454   -0.06353    9.81500
373423.682700    0.05575    0.17137    0.25348    0.37252   -0.05932    9.82351
373423.692700   -0.00034    0.03667    0.16513    0.37881   -0.06718    9.82714
373423.702700    0.17802    0.18822    0.34074    0.37108   -0.06506    9.81251
373423.712700    0.16610    0.19091    0.20609    0.37625   -0.06261    9.81391
373423.722700   -0.00430   -0.00630    0.21818    0.36751   -0.06934    9.82040
373423.732700    0.09505    0.04217    0.20025    0.36849   -0.06312    9.81250
373423.742700   -0.01765   -0.10491    0.23829    0.36822   -0.06462    9.81001
373423.752700    0.06847    0.04228    0.24603    0.37156   -0.06443    9.81251
373423.762700   -0.07729    0.15264    0.17630    0.36148   -0.06490    9.82501
373423.772700    0.15968    0.06165    0.34561    0.37082   -0.06375    9.81285
373423.782700    0.03380    0.19481    0.15292    0.36860   -0.06633    9.81074
373423.792700    0.17613    0.10434    0.27101    0.38044   -0.06708    9.80752
373423.802700    0.20546   -0.00900    0.20076    0.37439   -0.06842    9.81646
373423.812700   -0.03128    0.10491    0.23577    0.37565   -0.07184    9.80543
373423.822700    0.04045    0.00487    0.33312    0.38064   -0.07481    9.81471
373423.832700    0.16679   -0.00395    0.17813    0.37640   -0.05994    9.80033
373423.842700   -0.02040    0.07827    0.41602    0.37439   -0.07310    9.81685
373423.852700    0.03197    0.05924    0.29954    0.37255   -0.06200    9.82497
373423.862700    0.13069    0.06154    0.22976    0.37363   -0.06227    9.82568
373423.872700    0.15476    0.12284    0.38400    0.37226   -0.06499    9.82642
373423.882700    0.06463    0.13201    0.10308    0.37814   -0.07655    9.80260
373423.892700    0.29439    0.02424    0.21870    0.37851   -0.07148    9.81647
373423.902700    0.03988    0.02807    0.17412    0.36578   -0.05966    9.82210
373423.912700    0.09723   -0.00115    0.44439    0.36231   -0.06554    9.81003
373423.922700    0.02991   -0.07924    0.38445    0.36413   -0.07148    9.80615
373423.932700    0.15659    0.00579    0.03633    0.37577   -0.06646    9.81323
373423.942700    0.26081    0.00533    0.25365    0.37121   -0.06542    9.80502
373423.952700    0.04228    0.19584    0.28923    0.37557   -0.05960    9.82066
373423.962700   -0.06411    0.05265    0.07351    0.37886   -0.06792    9.82001
373423.972700   -0.02212    0.06068    0.17131    0.36817   -0.05667    9.81957
373423.982700   -0.05569   -0.03885    0.24700    0.37333   -0.07012    9.80720
373423.992700    0.09901    0.04905    0.30430    0.37262   -0.06544    9.81001
373424.002700   -0.01994   -0.00630    0.37317    0.36226   -0.07010    9.81649
373424.012700    0.07993    0.22133    0.16822    0.36830   -0.06686    9.81753
373424.022700    0.12376    0.13625    0.14708    0.37423   -0.07266    9.81329
373424.032700    0.14479    0.30332    0.28092    0.35884   -0.06058    9.81856
373424.042700    0.06492    0.10565    0.06830    0.38086   -0.05754    9.81029
373424.052700    0.00069    0.14931    0.24087    0.36881   -0.07390    9.80866
373424.062700    0.10434    0.07483    0.09528    0.38128   -0.07060    9.80933
373424.072700    0.04446    0.07408    0.37036    0.37047   -0.05451    9.81706
373424.082700    0.02630    0.11534    0.38102    0.36357   -0.06314    9.81179
373424.092700    0.14232    0.13992    0.13184    0.37398   -0.07572    9.82258
373424.102700    0.15934    0.14662    0.16238    0.36329   -0.06510    9.82108
373424.112700    0.11872    0.14106    0.33191    0.36569   -0.06660    9.80968
373424.122700    0.09259    0.10560    0.17131    0.37228   -0.06924    9.81504
373424.132700    0.05495    0.25159    0.19945    0.37453   -0.06929    9.82253
373424.142700    0.16226   -0.04377    0.28413    0.36342   -0.06657    9.81503
373424.152700    0.02636    0.06171    0.21618    0.37211   -0.06558    9.80324
373424.162700    0.12135   -0.08308    0.24030    0.37236   -0.06028    9.81032
373424.172700    0.10984    0.07609    0.15006    0.36721   -0.07126    9.81970
373424.182700   -0.00642    0.01862    0.17051    0.36987   -0.06585    9.82500
373424.192700    0.07878    0.18965    0.28659    0.35905   -0.06313    9.82429
373424.202700    0.16770    0.22139    0.21950    0.36560   -0.07229    9.81794
373424.212700   -0.05403    0.24419    0.14811    0.37174   -0.05673    9.81672
373424.222700    0.02979    0.05781    0.20810    0.37081   -0.06173    9.81176
373424.232700    0.07191    0.14324    0.18289    0.37431   -0.07170    9.81399
373424.242700    0.19154    0.16295    0.28321    0.37305   -0.04714    9.80701
373424.252700    0.05552   -0.01541    0.21830    0.37364   -0.05134    9.81881
373424.262700   -0.00991    0.02435    0.22070    0.38233   -0.06060    9.82493
373424.272700    0.00304    0.15544    0.23646    0.36805   -0.06379    9.82392
373424.282700    0.03976    0.21050    0.37162    0.37134   -0.06138    9.81212
373424.292700    0.08222    0.15814    0.39975    0.37177   -0.06241    9.80999
373424.302700    0.15504    0.13888    0.21973    0.37847   -0.07021    9.82181
373424.312700    0.10227   -0.04549    0.23835    0.36472   -0.06023    9.82390
373424.322700    0.13281    0.03718    0.20495    0.37384   -0.06515    9.80573
373424.332700   -0.02429    0.22855    0.19567    0.37561   -0.06823    9.82074
373424.342700    0.17836   -0.03896    0.32023    0.37470   -0.07125    9.81755
373424.352700   -0.01656    0.00516    0.31856    0.37239   -0.06701    9.81002
373424.362700    0.07534   -0.02595    0.24912    0.37096   -0.07689    9.80868
373424.372700    0.02544    0.15103    0.19085    0.36294   -0.07306    9.81759
373424.382700    0.06835    0.16713    0.27324    0.37488   -0.06178    9.80962
373424.392700    0.02286    0.08440    0.30751    0.36598   -0.06107    9.81249
373424.402700    0.18380    0.23256    0.26161    0.36588   -0.06789    9.81754
373424.412700    0.17550    0.00458    0.40233    0.36477   -0.06374    9.81857
373424.422700    0.19280    0.03547    0.28373    0.36685   -0.06781    9.81539
373424.432700    0.07872   -0.10840    0.25027    0.36477   -0.06647    9.81253
373424.442700    0.09053    0.20351    0.33237    0.37494   -0.06709    9.81573
373424.452700    0.01954    0.19572    0.16811    0.36973   -0.07594    9.80405
373424.462700    0.12680    0.25520    0.35993    0.36552   -0.07004    9.81470
373424.472700    0.27410    0.27112    0.11912    0.36525   -0.08081    9.82193
373424.482700    0.08795    0.27135    0.28545    0.38181   -0.06120    9.82602
373424.492700    0.20518   -0.03953    0.32189    0.36886   -0.06030    9.81318
373424.502700    0.17063    0.19670    0.25096    0.37418   -0.07097    9.80613
373424.512700    0.19761    0.07002    0.22093    0.37198   -0.06395    9.82141
373424.522700    0.13293    0.01868    0.25875    0.37333   -0.06329    9.82354
373424.532700    0.05793    0.08256    0.38554    0.36054   -0.07286    9.81116
373424.542700    0.01684    0.11133    0.16490    0.37161   -0.07242    9.82041
373424.552700    0.05552    0.14588    0.06526    0.37956   -0.07341    9.82540
373424.562700    0.03191    0.15143    0.25147    0.37824   -0.05486    9.80742
373424.572700    0.08342    0.12926    0.09500    0.36708   -0.06617    9.81395
373424.582700   -0.00625    0.01822    0.25840    0.37441   -0.07064    9.82967
373424.592700    0.07036    0.09746    0.17744    0.36253   -0.05762    9.81424
373424.602700   -0.02939   -0.04114    0.40027    0.36507   -0.06425    9.81572
373424.612700    0.21767   -0.10623    0.38749    0.37760   -0.07049    9.80219
373424.622700    0.08463    0.12393    0.22500    0.37213   -0.06514    9.81572
373424.632700    0.16335    0.03077    0.28201    0.36982   -0.06341    9.80465
373424.642700    0.21406    0.27009    0.32240    0.36900   -0.06810    9.81433
373424.652700    0.11912    0.17086    0.23125    0.38535   -0.08505    9.81016
373424.662700    0.18335    0.16919    0.17028    0.36324   -0.06345    9.81536
373424.672700    0.07345    0.12353    0.30562    0.36914   -0.06481    9.81572
373424.682700    0.12141    0.18037    0.16387    0.36695   -0.06995    9.81577
373424.692700    0.12743    0.09236    0.41517    0.36943   -0.05846    9.82031
373424.702700   -0.03919   -0.11058    0.19160    0.37068   -0.06281    9.81356
373424.712700    0.05942    0.05701    0.18587    0.36676   -0.06965    9.81184
373424.722700    0.13854   -0.10308    0.29060    0.36586   -0.07134    9.81149
373424.732700    0.19687   -0.01089    0.32618    0.36637   -0.05926    9.80926
373424.742700    0.03701    0.06967    0.23400    0.36043   -0.06427    9.80111
373424.752700    0.07042    0.09992    0.14341    0.38549   -0.07337    9.81826
373424.762700   -0.07368    0.15189    0.19223    0.36674   -0.06839    9.81255
373424.772700    0.13373    0.16301    0.07517    0.37490   -0.07138    9.81042
373424.782700    0.05833    0.07964    0.21801    0.37398   -0.06480    9.80965
373424.792700   -0.00298    0.14897    0.20592    0.36886   -0.07280    9.82292
373424.802700    0.18117    0.12066    0.28081    0.36911   -0.06054    9.82175
373424.812700    0.15132    0.14845    0.46793    0.37045   -0.06346    9.80822
373424.822700    0.09545    0.08405    0.14524    0.37615   -0.06955    9.82538
373424.832700    0.22850   -0.04269    0.07277    0.38198   -0.06916    9.81752
373424.842700   -0.13791   -0.04847    0.24305    0.36741   -0.06022    9.80177
373424.852700    0.07391    0.16667    0.04274    0.37077   -0.06563    9.80788
373424.862700   -0.04326    0.16071    0.24786    0.36837   -0.07036    9.81649
373424.872700   -0.01856    0.08703    0.49750    0.36877   -0.06905    9.80827
373424.882700    0.04389    0.02905    0.33908    0.36501   -0.06759    9.81682
373424.892700    0.05306    0.06589    0.20174    0.36784   -0.07373    9.81579
373424.902700   -0.03180   -0.04882    0.18048    0.36312   -0.06449    9.82571
373424.912700    0.12966   -0.02670    0.18804    0.36846   -0.05896    9.81246
373424.922700    0.07151    0.08296    0.16862    0.36544   -0.07367    9.81331
373424.932700    0.12485   -0.00550    0.14759    0.36656   -0.06853    9.81896
373424.942700    0.05621    0.05340    0.33277    0.37504   -0.06204    9.81319
373424.952700    0.04234    0.13493    0.15510    0.37674   -0.07063    9.82039
373424.962700    0.08296    0.09110    0.15246    0.37613   -0.07198    9.82076
373424.972700    0.20460    0.05879    0.13401    0.38298   -0.06773    9.80787
373424.982700    0.14702    0.08027    0.33827    0.38144   -0.06472    9.80965
373424.992700    0.19658    0.22128   -0.00464    0.37142   -0.06047    9.82495
373425.002700    0.16919    0.16243    0.25359    0.37217   -0.06260    9.82283
373425.012700   -0.00498    0.07110    0.20529    0.37674   -0.06096    9.82138
373425.022700    0.16169   -0.00837    0.21050    0.36720   -0.07064    9.80971
373425.032700    0.16845    0.19372    0.36291    0.37278   -0.06472    9.80751
373425.042700    0.17836    0.07998    0.37506    0.37124   -0.06475    9.81072
373425.052700    0.13493    0.31868    0.30584    0.37551   -0.06363    9.81749
373425.062700    0.12399   -0.02361    0.10743    0.37131   -0.07055    9.81862
373425.072700    0.13361    0.11717    0.11402    0.36947   -0.07298    9.81543
373425.082700    0.15859    0.13906    0.24546    0.36215   -0.05384    9.80672
373425.092700    0.14072    0.06641    0.28688    0.37236   -0.06400    9.82284
373425.102700    0.10926   -0.03845    0.21131    0.37407   -0.06859    9.81645
373425.112700    0.18833    0.02893    0.24620    0.36679   -0.06824    9.80433
373425.122700    0.11230    0.13258    0.27158    0.36944   -0.06758    9.81646
373425.132700    0.11929    0.03340    0.20563    0.37126   -0.06823    9.80576
373425.142700    0.05426    0.09620    0.13717    0.36366   -0.06835    9.81255
373425.152700    0.07781   -0.00831    0.19148    0.36998   -0.07336    9.81935
373425.162700    0.14272   -0.07374    0.25290    0.37229   -0.06348    9.80535
373425.172700    0.08881    0.14267    0.19463    0.37634   -0.06948    9.82253
373425.182700    0.08382   -0.01049    0.40124    0.37749   -0.06270    9.81176
373425.192700   -0.05644   -0.00092    0.12668    0.37087   -0.06841    9.80576
373425.202700   -0.03518    0.05294    0.22053    0.39066   -0.07543    9.81791
373425.212700   -0.09534    0.24889    0.38096    0.36797   -0.07358    9.81438
373425.222700    0.02263   -0.04589    0.15206    0.37409   -0.06178    9.81390
373425.232700    0.28487   -0.00871    0.24832    0.36709   -0.06775    9.80790
373425.242700    0.01856    0.01874    0.17412    0.35603   -0.06837    9.82077
373425.252700    0.01197    0.11706    0.09752    0.37085   -0.05981    9.81318
373425.262700    0.18461   -0.02045    0.37534    0.37510   -0.07235    9.80650
373425.272700    0.05300    0.12806    0.07615    0.37297   -0.06748    9.81324
373425.282700    0.00584    0.12960    0.11350    0.36568   -0.06661    9.81146
373425.292700    0.13797    0.10749    0.09597    0.37699   -0.06134    9.80712
373425.302700    0.20243    0.19945    0.06440    0.37487   -0.06563    9.81394
373425.312700   -0.00441    0.18656    0.17172    0.37704   -0.07614    9.82508
373425.322700    0.07798    0.26350    0.19223    0.37273   -0.06516    9.81786
373425.332700    0.05208    0.10181    0.34068    0.36917   -0.07552    9.81438
373425.342700    0.19784    0.09545    0.39735    0.37406   -0.06780    9.81645
373425.352700    0.24717    0.00596    0.21131    0.36675   -0.06490    9.81537
373425.362700    0.14164    0.03913    0.22185    0.37441   -0.07374    9.80722
373425.372700    0.16616    0.20386    0.26333    0.36043   -0.06816    9.81862
373425.382700    0.07202    0.12645    0.20976    0.37381   -0.06063    9.81211
373425.392700    0.15556    0.12244    0.32086    0.36517   -0.05754    9.81031
373425.402700    0.01541   -0.00017    0.26557    0.36578   -0.06901    9.79864
373425.412700    0.05919    0.01197    0.31862    0.37604   -0.06715    9.81573
373425.422700   -0.02372    0.19154   -0.00138    0.36424   -0.06968    9.81970
373425.432700    0.23944    0.17991    0.22597    0.37179   -0.06291    9.82034
373425.442700    0.13144    0.13682    0.37030    0.38031   -0.07400    9.81970
373425.452700    0.15980   -0.07907    0.26081    0.37754   -0.06194    9.82174
373425.462700    0.11981    0.17309    0.14066    0.37488   -0.05653    9.81350
373425.472700    0.03168    0.25531    0.20907    0.36346   -0.06042    9.81534
373425.482700    0.01788   -0.02464    0.40732    0.38179   -0.06819    9.82749
373425.492700    0.11213    0.03587    0.16788    0.37156   -0.06191    9.81997
373425.502700    0.04979    0.05162    0.21440    0.37109   -0.06107    9.81176
373425.512700    0.17802    0.06068    0.18186    0.35773   -0.05955    9.80927
373425.522700    0.05500    0.04051    0.26906    0.36895   -0.05134    9.81776
373425.532700    0.17481    0.01988    0.21910    0.38053   -0.06290    9.81854
373425.542700    0.11958    0.21578    0.20558    0.37244   -0.06434    9.81750
373425.552700    0.02194    0.16054    0.29078    0.37774   -0.06681    9.82321
373425.562700    0.13774   -0.06933    0.38520    0.37076   -0.07371    9.82149
373425.572700    0.09225    0.11585    0.07775    0.37256   -0.06926    9.81290
373425.582700    0.03489    0.11293    0.24992    0.37787   -0.08105    9.80978
373425.592700    0.05735   -0.25376    0.41178    0.36877   -0.07341    9.81757
373425.602700    0.01375    0.01117    0.36320    0.37124   -0.06624    9.80325
373425.612700    0.01071    0.14456    0.30791    0.36725   -0.06384    9.80680
373425.622700   -0.01833    0.12324    0.39213    0.37467   -0.07292    9.80971
373425.632700    0.04440   -0.01215    0.33541    0.38233   -0.06543    9.81641
373425.642700    0.09780    0.02641    0.12754    0.37329   -0.06309    9.80892
373425.652700    0.08199    0.01495    0.17785    0.37546   -0.06731    9.80182
373425.662700    0.11471    0.08990    0.33885    0.37213   -0.06825    9.80826
373425.672700   -0.01266   -0.07786    0.22706    0.37060   -0.05661    9.80958
373425.682700    0.14318    0.16026    0.19418    0.36317   -0.06100    9.81284
373425.692700    0.09746    0.10302    0.29851    0.37157   -0.06130    9.81961
373425.702700    0.09230    0.16100    0.23812    0.36838   -0.05963    9.82103
373425.712700    0.14439   -0.03930    0.29542    0.36716   -0.06164    9.82140
373425.722700    0.12049    0.04074    0.33466    0.38190   -0.06636    9.81643
373425.732700    0.07437    0.30372    0.28946    0.38073   -0.07029    9.81183
373425.742700    0.09047    0.04916    0.16134    0.36878   -0.06104    9.80963
373425.752700    0.07385    0.13654    0.22380    0.37531   -0.06551    9.80572
373425.762700   -0.00985    0.04028    0.32097    0.37261   -0.07733    9.81226
373425.772700    0.06984    0.08909    0.26803    0.36457   -0.06076    9.80892
373425.782700    0.17533   -0.04973    0.16656    0.36741   -0.06089    9.81105
373425.792700   -0.01203    0.21761    0.41156    0.37939   -0.06682    9.81857
373425.802700    0.15057    0.01146    0.21199    0.36963   -0.06646    9.82393
373425.812700    0.04446    0.14244    0.21652    0.36916   -0.07028    9.82255
373425.822700   -0.00092    0.09047    0.12347    0.37539   -0.07082    9.80613
373425.832700    0.24798    0.05151    0.30430    0.37814   -0.07433    9.80794
373425.842700   -0.01570    0.11138    0.07483    0.37421   -0.06149    9.81747
373425.852700    0.01289    0.04412    0.20512    0.37437   -0.07452    9.81151
373425.862700    0.08342    0.07901    0.21601    0.36449   -0.08069    9.81871
373425.872700    0.11001   -0.02664    0.23176    0.37232   -0.06507    9.82285
373425.882700    0.07168    0.04280    0.17412    0.36703   -0.04793    9.81522
373425.892700    0.04016    0.15407    0.35174    0.36882   -0.07278    9.80972
373425.902700   -0.05082    0.23451    0.29301    0.37901   -0.06687    9.81180
373425.912700    0.22649    0.12806    0.24660    0.37070   -0.05957    9.81425
373425.922700    0.09580    0.22741    0.10766    0.37131   -0.05958    9.81033
373425.932700    0.00693    0.02298    0.23039    0.37155   -0.06301    9.81356
373425.942700    0.20970    0.11986    0.26178    0.36742   -0.06808    9.82680
373425.952700   -0.04377    0.01049    0.22936    0.37067   -0.06903    9.82538
373425.962700    0.14742    0.13447    0.38016    0.38187   -0.06983    9.81717
373425.972700    0.04016    0.01444    0.25921    0.37100   -0.07312    9.81151
373425.982700   -0.10411    0.08216    0.26482    0.36940   -0.07181    9.81257
373425.992700    0.15413    0.02584    0.20363    0.37292   -0.05996    9.80675
373426.002700    0.11224    0.05311    0.32464    0.37978   -0.06025    9.81032
373426.012700    0.14610    0.08709    0.39895    0.36873   -0.05624    9.80316
373426.022700    0.14553   -0.00670    0.19675    0.36514   -0.06816    9.81290
373426.032700   -0.04165    0.16083    0.14903    0.36289   -0.06913    9.81220
373426.042700   -0.05735    0.22139    0.20604    0.37113   -0.07380    9.82151
373426.052700   -0.03260    0.11935    0.08216    0.37251   -0.06452    9.81714
373426.062700    0.15613    0.10136    0.23296    0.37323   -0.06890    9.80362
373426.072700    0.14272    0.14290    0.30281    0.37015   -0.07169    9.81364
373426.082700    0.02968    0.07053    0.51354    0.36670   -0.06345    9.81214
373426.092700    0.26614    0.02681    0.36532    0.37568   -0.05637    9.81956
373426.102700    0.16100    0.00504    0.34016    0.37007   -0.08017    9.82726
373426.112700    0.06136    0.15011    0.27301    0.37742   -0.07540    9.81865
373426.122700    0.07712    0.12416    0.13333    0.37287   -0.05993    9.81567
373426.132700    0.05540    0.08944    0.18902    0.37085   -0.07110    9.80827
373426.142700    0.11293    0.06715    0.27078    0.37367   -0.06987    9.82004
373426.152700    0.22420    0.01988    0.32957    0.36743   -0.06960    9.81112
373426.162700    0.09351    0.15040    0.27124    0.37561   -0.06926    9.81040
373426.172700   -0.03317    0.15407    0.32034    0.38289   -0.06681    9.81786
373426.182700    0.03415    0.00275    0.28877    0.37547   -0.07415    9.81436
373426.192700   -0.04028    0.23640    0.31369    0.36798   -0.06105    9.81712
373426.202700    0.11734    0.08256    0.28774    0.36917   -0.06752    9.81503
373426.212700   -0.10737    0.15934    0.27800    0.37321   -0.07284    9.82470
373426.222700    0.10560    0.11092    0.28499    0.36609   -0.07516    9.81224
373426.232700    0.13258    0.10766    0.41413    0.37313   -0.06613    9.80325
373426.242700    0.26127    0.20764    0.15659    0.37698   -0.07015    9.80434
373426.252700    0.10233    0.12175    0.14324    0.37291   -0.06171    9.81426
373426.262700    0.14524   -0.05563    0.25961    0.37064   -0.06958    9.81112
373426.272700    0.17722   -0.01925    0.29358    0.37160   -0.06404    9.81500
373426.282700   -0.05237    0.07781    0.19429    0.37070   -0.07767    9.82117
373426.292700    0.04990    0.06354    0.37179    0.36754   -0.06796    9.82146
373426.302700    0.17492    0.03295    0.33736    0.37164   -0.06681    9.81288
373426.312700    0.09236    0.23864    0.17321    0.36237   -0.06277    9.80716
373426.322700   -0.03994    0.09087    0.00052    0.36360   -0.06246    9.82606
373426.332700   -0.08789    0.16845    0.24482    0.37904   -0.06428    9.81998
373426.342700    0.08623    0.04309    0.18827    0.37025   -0.06094    9.82103
373426.352700    0.10107    0.07850    0.24849    0.37148   -0.07026    9.81612
373426.362700   -0.00201    0.03340    0.20695    0.37543   -0.07172    9.81148
373426.372700   -0.10159    0.03146    0.33232    0.36288   -0.06365    9.80288
373426.382700    0.25508    0.07156    0.35248    0.36947   -0.07120    9.81506
373426.392700    0.07609    0.07357    0.20970    0.37296   -0.06788    9.82323
373426.402700    0.10514    0.31410    0.19727    0.38098   -0.07122    9.81327
373426.412700   -0.03547   -0.01450    0.21984    0.37511   -0.07212    9.81505
373426.422700   -0.03014    0.09717    0.24345    0.37440   -0.07902    9.81476
373426.432700    0.09374    0.11362    0.24832    0.38185   -0.07021    9.81468
373426.442700    0.06245    0.20139    0.15539    0.38324   -0.07612    9.81829
373426.452700    0.12107    0.15390    0.23199    0.37710   -0.06639    9.82000
373426.462700    0.19125    0.07460    0.21807    0.36851   -0.06881    9.81718
373426.472700    0.04360    0.04320    0.28785    0.36389   -0.05839    9.80961
373426.482700    0.01725    0.11505    0.02825    0.38015   -0.06818    9.82001
373426.492700    0.07540    0.12055    0.12806    0.36673   -0.06902    9.81718
373426.502700    0.02108    0.10571    0.12066    0.37085   -0.06054    9.82461
373426.512700    0.18896   -0.02183    0.29800    0.36266   -0.05616    9.81387
373426.522700    0.06778    0.16404    0.36308    0.35783   -0.07551    9.82403
373426.532700    0.18604    0.12502    0.12955    0.36424   -0.05679    9.81816
373426.542700    0.13699    0.21709    0.15338    0.36799   -0.05958    9.81390
373426.552700    0.02624    0.00017    0.32785    0.37482   -0.07582    9.80973
373426.562700    0.04011    0.18060    0.18191    0.37104   -0.06206    9.81213
373426.572700    0.01318    0.09775    0.15802    0.36883   -0.06697    9.81537
373426.582700    0.00670   -0.05816    0.23233    0.36751   -0.06902    9.81576
373426.592700    0.03180    0.02412    0.15212    0.36922   -0.06861    9.81717
373426.602700    0.06778    0.00768    0.21509    0.36811   -0.05968    9.81710
373426.612700   -0.05380    0.00710    0.12508    0.36659   -0.07311    9.82043
373426.622700   -0.05890    0.03501    0.01558    0.37678   -0.07213    9.81434
373426.632700    0.02235    0.06354    0.16003    0.38059   -0.06911    9.82501
373426.642700    0.22454    0.16043    0.30183    0.37664   -0.06364    9.81606
373426.652700    0.36629    0.15246    0.23388    0.37278   -0.06224    9.80428
373426.662700    0.07964    0.09248    0.25325    0.37785   -0.07269    9.81434
373426.672700    0.10955   -0.03403    0.35695    0.37544   -0.07136    9.80613
373426.682700    0.23016    0.07620    0.15407    0.36082   -0.06155    9.81321
373426.692700    0.07540    0.08388    0.33667    0.37638   -0.07241    9.81327
373426.702700   -0.02939    0.02068    0.27496    0.37520   -0.07762    9.81974
373426.712700   -0.02813    0.19435    0.34481    0.37080   -0.06483    9.82714
373426.722700    0.11413    0.06681    0.39059    0.38085   -0.06399    9.81498
373426.732700    0.14312    0.18495    0.30418    0.38016   -0.06290    9.82531
373426.742700    0.17005    0.11316    0.11064    0.37456   -0.05189    9.81881
373426.752700    0.09087    0.08583    0.17086    0.36665   -0.05547    9.82243
373426.762700    0.01438    0.12909    0.32653    0.36750   -0.07730    9.81939
373426.772700    0.01570    0.13281    0.20552    0.35395   -0.07253    9.81902
373426.782700    0.13522    0.05793    0.24992    0.36117   -0.05656    9.81530
373426.792700   -0.05082    0.13487    0.31375    0.36701   -0.06458    9.81323
373426.802700    0.07477   -0.09110    0.20117    0.37142   -0.07885    9.82832
373426.812700    0.09975    0.04830    0.04011    0.36988   -0.06269    9.81855
373426.822700    0.15298    0.14009    0.12943    0.36455   -0.06303    9.80893
373426.832700    0.12009   -0.09557    0.11688    0.37310   -0.06857    9.81717
373426.842700    0.16581    0.10170    0.15911    0.37339   -0.06431    9.81999
373426.852700    0.02584    0.12720    0.27897    0.37733   -0.05796    9.81672
373426.862700   -0.00126    0.16049    0.32618    0.37834   -0.06536    9.82464
373426.872700   -0.01616   -0.00011    0.22024    0.37991   -0.05964    9.81923
373426.882700    0.02716    0.08365    0.32389    0.36975   -0.05550    9.81493
373426.892700    0.08130    0.07225    0.16633    0.37373   -0.07447    9.80259
373426.902700    0.04269    0.07592    0.09729    0.39297   -0.07440    9.80970
373426.912700    0.13338    0.22993    0.17842    0.37926   -0.06539    9.80930
373426.922700    0.05512    0.02853    0.22735    0.38467   -0.05861    9.80637
373426.932700    0.22546    0.19509    0.37603    0.37398   -0.07254    9.81828
373426.942700    0.03478    0.06165    0.40187    0.36818   -0.06688    9.82251
373426.952700    0.21154    0.06589    0.10663    0.36812   -0.06796    9.80540
373426.962700    0.02521    0.13797    0.43396    0.36747   -0.07035    9.81577
373426.972700    0.06853    0.09729    0.18340    0.37528   -0.06890    9.81610
373426.982700    0.06297   -0.02309    0.31816    0.36310   -0.07173    9.82577
373426.992700    0.12078    0.21291    0.07712    0.35555   -0.07277    9.82009
373427.002700    0.08354    0.05225    0.24265    0.35846   -0.06413    9.82072
373427.012700    0.04526    0.06102    0.29272    0.36609   -0.06723    9.81289
373427.022700    0.20775    0.12496    0.24620    0.36422   -0.06103    9.80999
373427.032700    0.06658    0.13430    0.20288    0.36953   -0.07260    9.82541
373427.042700    0.11883    0.08279    0.24265    0.36087   -0.06960    9.82683
373427.052700    0.00642    0.11923    0.34446    0.36250   -0.06004    9.81355
373427.062700    0.14989    0.09448    0.17819    0.37229   -0.06787    9.80540
373427.072700    0.11018    0.03289    0.15516    0.37485   -0.07222    9.82933
373427.082700    0.17538    0.01392    0.44467    0.37335   -0.06052    9.81710
373427.092700    0.15963    0.07019    0.15401    0.36149   -0.06475    9.80575
373427.102700   -0.05185    0.06623    0.09815    0.37567   -0.06840    9.80575
373427.112700    0.08589   -0.10181    0.30596    0.38072   -0.06334    9.81676
373427.122700    0.11259    0.12949    0.37597    0.36946   -0.06742    9.81931
373427.132700    0.08881    0.05936    0.25067    0.37052   -0.06620    9.81288
373427.142700   -0.02137    0.08932    0.18753    0.38087   -0.07383    9.81185
373427.152700    0.02338    0.36790    0.17315    0.37897   -0.07382    9.81507
373427.162700    0.01381    0.00934    0.09843    0.38227   -0.05421    9.80633
373427.172700   -0.00693    0.09121    0.30321    0.38505   -0.07204    9.81683
373427.182700    0.01060   -0.04412    0.31553    0.37549   -0.07176    9.81469
373427.192700   -0.07002   -0.12869    0.25382    0.37136   -0.06246    9.81355
373427.202700    0.19034   -0.01713    0.18936    0.37346   -0.06918    9.81432
373427.212700    0.01432    0.23520    0.33856    0.36489   -0.06174    9.81927
373427.222700    0.12456    0.25789    0.23835    0.36491   -0.06502    9.82786
373427.232700    0.25806    0.11837    0.29376    0.35257   -0.06987    9.82114
373427.242700    0.04922    0.27491    0.21841    0.37212   -0.06475    9.82499
373427.252700    0.03633    0.09053    0.42067    0.36798   -0.05794    9.82138
373427.262700    0.09929    0.07735    0.24345    0.36321   -0.06280    9.80894
373427.272700    0.09058    0.09803    0.37861    0.36491   -0.06856    9.81220
373427.282700   -0.11797    0.02429    0.23520    0.36927   -0.06779    9.81717
373427.292700    0.21944    0.09351    0.20334    0.35727   -0.06065    9.81250
373427.302700    0.23566    0.05317    0.37116    0.36237   -0.07057    9.82612
373427.312700   -0.00401    0.00476    0.39866    0.36921   -0.06350    9.81928
373427.322700    0.13407    0.19263    0.26648    0.36868   -0.06929    9.81362
373427.332700    0.25852    0.09597    0.11643    0.37157   -0.06809    9.81003
373427.342700   -0.07047    0.11832    0.27427    0.38050   -0.07214    9.81220
373427.352700    0.06812    0.02412    0.38795    0.36470   -0.06001    9.81604
373427.362700   -0.01438   -0.11155    0.16152    0.37860   -0.06730    9.81679
373427.372700    0.09803   -0.05420    0.29238    0.37099   -0.06514    9.81037
373427.382700   -0.19011    0.01467    0.24414    0.36885   -0.07954    9.81406
373427.392700    0.25021    0.23125    0.09614    0.37138   -0.06849    9.80933
373427.402700   -0.03816    0.27152    0.21480    0.38634   -0.06970    9.80931
373427.412700   -0.03535    0.07529    0.22351    0.37636   -0.07170    9.80899
373427.422700    0.16839    0.22368    0.16679    0.38325   -0.07218    9.81932
373427.432700    0.11356    0.12863    0.39018    0.36989   -0.06475    9.82214
373427.442700    0.06841    0.07872    0.05861    0.37054   -0.06208    9.81035
373427.452700    0.00676    0.20781    0.13253    0.37104   -0.06873    9.81040
373427.462700    0.05844    0.20821    0.41665    0.36426   -0.06317    9.81357
373427.472700    0.08325    0.11345    0.29868    0.36814   -0.07063    9.81506
373427.482700    0.00802    0.03300    0.32412    0.37165   -0.06173    9.82140
373427.492700   -0.11648    0.23652    0.19045    0.36825   -0.06156    9.81320
373427.502700    0.14003    0.11625    0.23073    0.36324   -0.06510    9.81109
373427.512700    0.05879    0.16020    0.34996    0.37322   -0.06761    9.80682
373427.522700   -0.08697   -0.09941    0.36818    0.37275   -0.07468    9.80973
373427.532700    0.07099    0.13682    0.18850    0.37010   -0.06943    9.81005
373427.542700    0.20472    0.09947    0.33581    0.36536   -0.07611    9.81832
373427.552700    0.08571    0.12250    0.31209    0.36122   -0.06578    9.82430
373427.562700    0.12909    0.12765    0.20999    0.36080   -0.06310    9.81679
373427.572700    0.16324    0.05712    0.36108    0.36910   -0.06273    9.81321
373427.582700   -0.05432    0.06830    0.14249    0.37473   -0.06729    9.81466
373427.592700   -0.01301    0.20386    0.10285    0.38075   -0.06865    9.81324
373427.602700    0.11952    0.00115    0.22603    0.37852   -0.06916    9.81432
373427.612700   -0.01192   -0.00625    0.10078    0.36774   -0.06490    9.80645
373427.622700    0.10445    0.13453    0.07202    0.37741   -0.07119    9.82005
373427.632700   -0.01765    0.07586    0.16507    0.37670   -0.06693    9.80681
373427.642700    0.07368    0.07489    0.32395    0.37364   -0.06371    9.81534
373427.652700    0.07683    0.26877    0.17252    0.37607   -0.05792    9.80852
373427.662700    0.06887    0.11087    0.30327    0.37215   -0.05830    9.81638
373427.672700    0.12227   -0.07534    0.32647    0.37129   -0.06445    9.81357
373427.682700    0.04463    0.01885    0.27313    0.36132   -0.07416    9.81046
373427.692700    0.09379    0.09964    0.22804    0.36679   -0.07722    9.81832
373427.702700   -0.00223    0.12525    0.14799    0.37356   -0.06597    9.80787
373427.712700    0.04211    0.07947    0.22431    0.36494   -0.06006    9.81141
373427.722700    0.07506    0.10032    0.23606    0.36780   -0.06818    9.81932
373427.732700    0.10663    0.06583    0.27210    0.36605   -0.06861    9.81040
373427.742700    0.10244    0.17246    0.39271    0.36588   -0.05967    9.81462
373427.752700    0.04389    0.25583    0.16008    0.36523   -0.07381    9.80831
373427.762700    0.04996    0.19973    0.20867    0.37437   -0.07958    9.81726
373427.772700    0.27771    0.09964    0.26161    0.35749   -0.07498    9.82010
373427.782700    0.10737    0.08016    0.26740    0.35780   -0.06998    9.81685
373427.792700    0.14719    0.09987    0.18065    0.36470   -0.07683    9.81369
373427.802700   -0.02699    0.03329    0.25393    0.37277   -0.07307    9.83005
373427.812700    0.17641   -0.07666    0.17796    0.36372   -0.06370    9.82143
373427.822700    0.14456    0.13304    0.30865    0.37157   -0.07472    9.81366
373427.832700    0.07935    0.18507    0.14691    0.37146   -0.05959    9.82173
373427.842700    0.19217    0.11998    0.32670    0.37680   -0.06984    9.82181
373427.852700    0.00859   -0.13138    0.28533    0.38222   -0.07264    9.81612
373427.862700   -0.03329    0.01043    0.47825    0.37574   -0.06586    9.81715
373427.872700    0.15441   -0.01215    0.48850    0.36884   -0.05856    9.82031
373427.882700    0.14112    0.08938    0.22701    0.36355   -0.05520    9.80851
373427.892700    0.00086    0.11545    0.27250    0.36253   -0.06802    9.81255
373427.902700    0.00945    0.14931    0.23663    0.36461   -0.07379    9.82401
373427.912700    0.01960    0.20013    0.17372    0.36866   -0.06454    9.80930
373427.922700    0.04836    0.08675    0.24689    0.37323   -0.06798    9.81146
373427.932700    0.19899    0.02017    0.29049    0.36890   -0.07925    9.81405
373427.942700    0.11408    0.06675    0.38325    0.37441   -0.07437    9.81543
373427.952700   -0.19778    0.14610    0.18329    0.36771   -0.07405    9.81223
373427.962700    0.02853   -0.08457    0.28682    0.36523   -0.06798    9.81682
373427.972700    0.16685    0.08107    0.15476    0.36114   -0.06750    9.80969
373427.982700    0.02962   -0.03833    0.20879    0.36645   -0.06198    9.81606
373427.992700    0.07076    0.26012    0.21285    0.37441   -0.06475    9.81715
373428.002700    0.05145    0.15424    0.26797    0.37299   -0.07405    9.82043
373428.012700    0.01215    0.17968    0.06606    0.37040   -0.06476    9.82464
373428.022700   -0.14181    0.16713    0.16713    0.36311   -0.05884    9.81390
373428.032700    0.05655   -0.06635    0.13442    0.36928   -0.06447    9.81429
373428.042700    0.04893   -0.10113    0.17773    0.36582   -0.06761    9.81147
373428.052700    0.16410   -0.03787    0.38927    0.37059   -0.06340    9.80714
373428.062700   -0.06194    0.20730    0.44765    0.37045   -0.07010    9.81327
373428.072700    0.08571    0.17555    0.15052    0.38013   -0.05880    9.81530
373428.082700    0.05357    0.09185    0.46192    0.38149   -0.07412    9.81186
373428.092700    0.09929    0.07953    0.28814    0.37042   -0.05519    9.80529
373428.102700    0.16243    0.32326    0.28545    0.37410   -0.06963    9.80791
373428.112700    0.09826    0.16581    0.17842    0.37117   -0.06854    9.82360
373428.122700    0.19337    0.18782    0.40978    0.37602   -0.06837    9.82644
373428.132700   -0.04807    0.24666    0.40548    0.37319   -0.07284    9.81721
373428.142700    0.09557    0.08606    0.21474    0.37399   -0.07511    9.82115
373428.152700    0.09339   -0.05374    0.22947    0.37369   -0.07200    9.81185
373428.162700    0.05202    0.12353    0.37300    0.37089   -0.06869    9.80790
373428.172700    0.26769    0.27101    0.40783    0.37551   -0.05880    9.81031
373428.182700    0.14037    0.06240    0.21119    0.37185   -0.06820    9.81967
373428.192700    0.06429    0.07947    0.19756    0.36749   -0.07072    9.81720
373428.202700    0.15441    0.01782    0.26247    0.36335   -0.06542    9.81787
373428.212700    0.06537    0.08062    0.24958    0.37154   -0.07307    9.81222
373428.222700    0.04194   -0.01707    0.15504    0.37065   -0.06481    9.81536
373428.232700    0.06469    0.21274    0.42834    0.36967   -0.06310    9.81356
373428.242700    0.01346   -0.01238    0.21933    0.36576   -0.06417    9.81001
373428.252700   -0.06016   -0.00636    0.42359    0.36579   -0.07042    9.81719
373428.262700    0.13992    0.05942    0.32779    0.36429   -0.05264    9.81991
373428.272700    0.16897   -0.04251    0.18845    0.37745   -0.06783    9.81074
373428.282700    0.10021    0.20094    0.34956    0.37568   -0.07059    9.81505
373428.292700    0.01725    0.02899    0.38497    0.36923   -0.06459    9.80787
373428.302700    0.07947    0.04566    0.08216    0.37571   -0.06546    9.81643
373428.312700    0.02555    0.03054    0.16725    0.36397   -0.07527    9.80618
373428.322700   -0.00189    0.12342    0.26368    0.37701   -0.07348    9.81114
373428.332700    0.00069    0.30945    0.17676    0.36230   -0.06739    9.80613
373428.342700   -0.24488    0.23508    0.25084    0.37238   -0.06135    9.80749
373428.352700   -0.10141    0.06010    0.21984    0.37022   -0.06114    9.82282
373428.362700    0.04589    0.15699    0.26717    0.37558   -0.05904    9.81424
373428.372700   -0.08634    0.08858    0.28052    0.37324   -0.06903    9.81183
373428.382700    0.05225    0.18982    0.34314    0.37356   -0.07032    9.81968
373428.392700    0.04521   -0.00739    0.12886    0.37750   -0.06721    9.81715
373428.402700    0.12456    0.10113    0.14106    0.36317   -0.05933    9.80819
373428.412700    0.07145    0.12880    0.34355    0.37244   -0.06692    9.80931
373428.422700    0.12914    0.25204    0.27766    0.36682   -0.05657    9.80210
373428.432700    0.25159    0.11276    0.22540    0.36692   -0.05298    9.81313
373428.442700    0.05432    0.00997    0.16822    0.36269   -0.06753    9.82181
373428.452700    0.04108    0.08640    0.17785    0.37364   -0.07555    9.81010
373428.462700    0.12605    0.10382    0.28545    0.37147   -0.05830    9.81174
373428.472700    0.04183    0.00338    0.24437    0.37183   -0.06277    9.81177
373428.482700    0.04211    0.10050    0.28785    0.37187   -0.07069    9.80792
373428.492700   -0.08228    0.12513    0.23921    0.37058   -0.06872    9.82252
373428.502700    0.07334    0.18094    0.19269    0.36672   -0.06958    9.82361
373428.512700    0.13241    0.12972    0.09798    0.36811   -0.07583    9.81546
373428.522700    0.00504    0.17143    0.36114    0.37938   -0.06138    9.81746
373428.532700    0.03466    0.15825    0.34864    0.36871   -0.06717    9.81432
373428.542700   -0.02183   -0.10130    0.38996    0.37787   -0.06416    9.81392
373428.552700    0.22913   -0.01324    0.06285    0.37954   -0.06908    9.81146
373428.562700    0.09746    0.19503    0.27622    0.37359   -0.08443    9.81731
373428.572700    0.03209    0.01312    0.26224    0.37577   -0.06927    9.81039
373428.582700    0.02573    0.11700    0.19905    0.37214   -0.06388    9.80429
373428.592700    0.22718    0.14204    0.21744    0.38016   -0.07248    9.82362
373428.602700    0.15063   -0.07638    0.26304    0.36589   -0.07342    9.81115
373428.612700    0.15252    0.08463    0.17068    0.36989   -0.06990    9.81540
373428.622700    0.19446    0.11786    0.25852    0.37941   -0.05978    9.81566
373428.632700    0.07729    0.31908    0.45384    0.37794   -0.06644    9.81644
373428.642700    0.20042    0.13482    0.23612    0.37470   -0.06284    9.82889
373428.652700    0.07042    0.02361    0.27485    0.36556   -0.06992    9.81470
373428.662700    0.12949   -0.04698    0.12920    0.37266   -0.06063    9.81211
373428.672700    0.06623    0.00676    0.33140    0.36846   -0.06110    9.80962
373428.682700    0.12307    0.01289    0.22208    0.36984   -0.06467    9.81429
373428.692700    0.02389    0.15923    0.06709    0.37247   -0.06663    9.81109
373428.702700    0.00286   -0.02956    0.20592    0.37299   -0.06763    9.81074
373428.712700    0.02389    0.05099    0.28167    0.36223   -0.06937    9.81755
373428.722700    0.08125    0.19097    0.19710    0.36866   -0.06270    9.81642
373428.732700    0.02739    0.17086    0.37895    0.36728   -0.06213    9.81499
373428.742700    0.14960    0.03741    0.23995    0.36989   -0.06615    9.81252
373428.752700    0.01673   -0.06784    0.24276    0.36988   -0.06176    9.80892
373428.762700   -0.00458    0.06480    0.09597    0.37196   -0.06410    9.81856
373428.772700    0.02166   -0.02762    0.21658    0.36933   -0.07454    9.81651
373428.782700   -0.09998    0.09608    0.21772    0.36703   -0.06667    9.81325
373428.792700    0.20048    0.06727    0.35472    0.37158   -0.07058    9.81719
373428.802700    0.24626   -0.08984    0.27932    0.37171   -0.06150    9.82532
373428.812700    0.06990    0.06801    0.23526    0.37155   -0.05689    9.82135
373428.822700   -0.02412   -0.08440    0.52259    0.37928   -0.06591    9.81678
373428.832700    0.04905    0.12204    0.27445    0.38119   -0.07336    9.82148
373428.842700    0.15338    0.13814    0.27095    0.37049   -0.07023    9.81790
373428.852700   -0.07231    0.01037    0.24047    0.37026   -0.06840    9.80683
373428.862700    0.11660    0.03919    0.26780    0.37188   -0.07209    9.80936
373428.872700    0.23497    0.00911    0.31816    0.37261   -0.05947    9.81067
373428.882700    0.07907    0.05449    0.21830    0.37852   -0.06817    9.81930
373428.892700    0.11889    0.09116    0.24964    0.37707   -0.06704    9.82429
373428.902700    0.01117    0.19309    0.35483    0.36533   -0.07277    9.82114
373428.912700    0.13917    0.03249    0.31885    0.37708   -0.06303    9.81605
373428.922700    0.11253    0.01667   -0.00458    0.36997   -0.07196    9.81720
373428.932700    0.06847    0.14662    0.30934    0.35765   -0.07388    9.80833
373428.942700    0.08508    0.19240    0.30120    0.36838   -0.06749    9.81396
373428.952700    0.14971    0.10061    0.14387    0.37051   -0.06578    9.81109
373428.962700    0.18077    0.09603    0.39402    0.37086   -0.06544    9.81644
373428.972700    0.19200    0.14805    0.38228    0.36744   -0.07396    9.82044
373428.982700    0.12210    0.21268    0.16828    0.37140   -0.07171    9.81328
373428.992700    0.15768    0.22746    0.20604    0.37314   -0.06793    9.80540
373429.002700    0.04670    0.15458    0.17298    0.36425   -0.07253    9.80189
373429.012700    0.17957    0.02406    0.35672    0.36714   -0.06648    9.80968
373429.022700    0.03850    0.07116    0.21291    0.37022   -0.06972    9.80755
373429.032700    0.16203    0.21486    0.17659    0.37697   -0.06566    9.82249
373429.042700    0.03930    0.16536    0.18919    0.37566   -0.06712    9.82108
373429.052700    0.25571    0.04824    0.24832    0.36992   -0.07008    9.81683
373429.062700    0.12095    0.16593    0.29318    0.37626   -0.06545    9.80858
373429.072700    0.12267    0.22489    0.40227    0.37283   -0.07608    9.82116
373429.082700    0.18495    0.10279    0.29805    0.37462   -0.06539    9.81464
373429.092700   -0.00052    0.16358    0.24099    0.36697   -0.06701    9.81039
373429.102700    0.12605   -0.00023    0.27508    0.37018   -0.06127    9.81569
373429.112700    0.01375    0.12519    0.11929    0.37738   -0.07656    9.82294
373429.122700    0.11471    0.06159    0.27662    0.37159   -0.05172    9.81454
373429.132700    0.16610    0.01925    0.32968    0.37895   -0.06746    9.80930
373429.142700    0.16066    0.14794    0.11769    0.37005   -0.06669    9.82109
373429.152700    0.00630    0.24058    0.36629    0.37179   -0.06110    9.81533
373429.162700    0.13562   -0.04274    0.36480    0.37705   -0.05956    9.80354
373429.172700    0.03707   -0.06612    0.19555    0.37625   -0.07102    9.81611
373429.182700    0.15355    0.28877    0.25428    0.36381   -0.06720    9.81682
373429.192700   -0.03065   -0.01530    0.38950    0.37008   -0.05424    9.81135
373429.202700    0.05111    0.16558    0.20518    0.37454   -0.06411    9.81499
373429.212700    0.07935    0.14215    0.28974    0.37573   -0.07303    9.81721
373429.222700    0.11092    0.02366    0.09099    0.36251   -0.05930    9.80570
373429.232700    0.07620    0.05529    0.19503    0.36675   -0.06600    9.80396
373429.242700    0.08245    0.17441    0.28058    0.37328   -0.07343    9.81364
373429.252700    0.05930    0.19612    0.34137    0.37914   -0.06577    9.81642
373429.262700    0.03633    0.07764    0.07454    0.37218   -0.05693    9.81993
373429.272700    0.15097    0.05311    0.16633    0.36648   -0.06651    9.80932
373429.282700    0.01541    0.08858    0.00556    0.36742   -0.07136    9.81863
373429.292700    0.13997   -0.02372    0.10749    0.36671   -0.06371    9.81072
373429.302700   -0.04945   -0.03392    0.31518    0.37609   -0.07316    9.81079
373429.312700    0.01793    0.09190    0.24672    0.37078   -0.06759    9.81574
373429.322700    0.13207    0.19194    0.16770    0.36457   -0.06991    9.81114
373429.332700    0.13379   -0.00344    0.18375    0.36499   -0.06345    9.80466
373429.342700    0.16369    0.09643    0.31060    0.37329   -0.07814    9.80869
373429.352700    0.04635    0.07179    0.12485    0.36293   -0.05798    9.82031
373429.362700    0.12278    0.06641    0.32406    0.36533   -0.06197    9.81820
373429.372700    0.06984    0.08422    0.24144    0.37633   -0.07170    9.81041
373429.382700   -0.08457    0.18782    0.25881    0.37253   -0.06562    9.82143
373429.392700    0.06939    0.14645    0.27164    0.37083   -0.06722    9.81324
373429.402700    0.19962    0.07168    0.34223    0.36607   -0.06821    9.80790
373429.412700    0.11362    0.28596    0.30355    0.36314   -0.07512    9.81617
373429.422700    0.06520   -0.02332    0.40588    0.37656   -0.06850    9.81895
373429.432700    0.12926    0.08062    0.40823    0.36874   -0.05829    9.80960
373429.442700    0.11476    0.12777    0.22523    0.37288   -0.07138    9.80971
373429.452700    0.01106   -0.07420    0.12296    0.37901   -0.07827    9.81938
373429.462700    0.04228    0.08594    0.25926    0.36739   -0.06032    9.81961
373429.472700    0.22047    0.12639    0.29169    0.36669   -0.07061    9.80899
373429.482700    0.17160    0.17487    0.22878    0.36947   -0.07477    9.81651
373429.492700    0.20781   -0.08898    0.19670    0.36970   -0.06607    9.82500
373429.502700    0.07970    0.21440    0.34125    0.37338   -0.05480    9.81029
373429.512700   -0.00092    0.18931    0.49080    0.36835   -0.07153    9.80615
373429.522700   -0.08795    0.12639    0.15195    0.37064   -0.07143    9.82183
373429.532700   -0.06073    0.02670    0.27708    0.36571   -0.06941    9.81184
373429.542700    0.10497   -0.04280    0.23783    0.36811   -0.06314    9.80179
373429.552700   -0.10972    0.09878    0.23635    0.37362   -0.06286    9.81177
373429.562700    0.11671    0.01524    0.18249    0.36509   -0.07101    9.81649
373429.572700   -0.02126    0.13722    0.38142    0.37012   -0.06489    9.81251
373429.582700    0.13516    0.06131    0.20982    0.36634   -0.05826    9.81246
373429.592700    0.08571    0.04217    0.39018    0.37676   -0.06884    9.82003
373429.602700    0.02080    0.05953    0.22855    0.36882   -0.07386    9.81865
373429.612700   -0.03547    0.08136    0.21022    0.37433   -0.06796    9.82109
373429.622700    0.00848    0.09551    0.38795    0.37254   -0.06623    9.81359
373429.632700    0.13092    0.20277    0.16014    0.37395   -0.06914    9.82609
373429.642700    0.02143    0.18484    0.18965    0.37349   -0.05891    9.81567
373429.652700    0.06721    0.15814    0.14215    0.37118   -0.06620    9.81572
373429.662700    0.03982    0.03885    0.19910    0.37128   -0.06381    9.81963
373429.672700    0.12107    0.17521    0.35730    0.35836   -0.05727    9.81211
373429.682700   -0.01243   -0.05300    0.35718    0.37749   -0.07689    9.80832
373429.692700   -0.00384    0.20982    0.18134    0.37388   -0.07209    9.81578
373429.702700    0.08692    0.07764    0.30848    0.37078   -0.06443    9.81893
373429.712700   -0.10508    0.01123    0.29588    0.36940   -0.08037    9.82155
373429.722700   -0.00258   -0.02418    0.23153    0.36893   -0.07587    9.81724
373429.732700    0.09104    0.04165    0.30945    0.37440   -0.07101    9.81612
373429.742700    0.14410    0.15040    0.22477    0.37108   -0.05779    9.81851
373429.752700    0.19572    0.08812    0.25921    0.37777   -0.06886    9.81360
373429.762700    0.10239    0.21348    0.20942    0.37487   -0.07230    9.81685
373429.772700   -0.04366    0.13138    0.31771    0.37387   -0.06526    9.81286
373429.782700    0.18999    0.07643    0.38663    0.37326   -0.06296    9.81498
373429.792700    0.08726    0.09099    0.15504    0.36644   -0.07170    9.81471
373429.802700    0.07746    0.11751    0.24196    0.37335   -0.07372    9.82363
373429.812700    0.06790    0.08382    0.17492    0.36951   -0.07558    9.81117
373429.822700   -0.09740    0.01948    0.27960    0.37021   -0.07120    9.81256
373429.832700    0.15206   -0.00074    0.30258    0.37472   -0.07273    9.80971
373429.842700    0.24282    0.11958    0.31392    0.37628   -0.06506    9.80965
373429.852700   -0.07236   -0.05042    0.39288    0.36617   -0.06419    9.81607
373429.862700   -0.02515   -0.00126    0.18203    0.37224   -0.05971    9.81960
373429.872700    0.06073    0.06016    0.41161    0.37152   -0.06412    9.81321
373429.882700    0.20185    0.19853    0.25984    0.37075   -0.06642    9.81609
373429.892700    0.18633    0.04452    0.31874    0.37263   -0.06961    9.81647
373429.902700    0.21904    0.17739    0.29221    0.37525   -0.07401    9.81401
373429.912700   -0.00046   -0.09568    0.42548    0.37174   -0.05904    9.81994
373429.922700    0.09786    0.18329    0.39574    0.36634   -0.06517    9.81251
373429.932700   -0.03231    0.03329    0.24207    0.37233   -0.07354    9.80865
373429.942700   -0.08039    0.10267    0.23795    0.36876   -0.06667    9.80860
373429.952700    0.05810   -0.00659    0.21348    0.36558   -0.06247    9.81250
373429.962700    0.08365    0.08789    0.37655    0.36049   -0.07213    9.80759
373429.972700    0.05042    0.03959    0.15796    0.36608   -0.07690    9.81047
373429.982700    0.14513    0.10938    0.13894    0.37911   -0.06789    9.81680
373429.992700    0.21291    0.01306    0.40663    0.36985   -0.05711    9.81351
373430.002700   -0.00246    0.20357    0.32481    0.37520   -0.06965    9.81219
373430.012700   -0.13871   -0.02183    0.36119    0.37820   -0.07118    9.82004
373430.022700    0.05758    0.35541    0.26958    0.37889   -0.06947    9.81790
373430.032700    0.09935    0.10290    0.30384    0.37219   -0.05516    9.80886
373430.042700   -0.05455    0.06663    0.05283    0.36890   -0.07384    9.82329
373430.052700   -0.09906    0.10336    0.24798    0.37083   -0.07311    9.82364
373430.062700    0.04807    0.10961    0.16198    0.36929   -0.08201    9.82300
373430.072700    0.09545    0.03988    0.29152    0.37134   -0.08192    9.82514
373430.082700   -0.01770    0.17836    0.19567    0.37012   -0.06280    9.81499
373430.092700   -0.01444    0.24001    0.29679    0.37965   -0.06416    9.81320
373430.102700    0.10926   -0.00539    0.31776    0.37752   -0.07090    9.81576
373430.112700    0.07334    0.13906    0.39150    0.37815   -0.07335    9.82434
373430.122700    0.09104    0.17779    0.10365    0.37184   -0.06608    9.81858
373430.132700    0.15733    0.29914    0.31129    0.37138   -0.06685    9.81074
373430.142700   -0.13470    0.06274    0.40130    0.37230   -0.07431    9.81223
373430.152700    0.04372   -0.02773    0.44507    0.37302   -0.06170    9.81997
373430.162700    0.03793    0.10348    0.07970    0.36586   -0.06457    9.80396
373430.172700    0.14370    0.10474    0.25646    0.37129   -0.07091    9.81827
373430.182700   -0.01278    0.16478    0.30693    0.37212   -0.06008    9.81212
373430.192700    0.05621   -0.00017    0.25405    0.36921   -0.06452    9.81108
373430.202700    0.15596    0.02378    0.19664    0.38155   -0.06227    9.80712
373430.212700    0.17149    0.02005    0.30344    0.36958   -0.06891    9.81539
373430.222700    0.15424    0.14926    0.33426    0.37496   -0.07051    9.82468
373430.232700    0.06096    0.00349    0.24408    0.37223   -0.06244    9.80357
373430.242700    0.14381    0.09941    0.25823    0.38201   -0.07258    9.82076
373430.252700    0.10989    0.22563    0.38577    0.38049   -0.06778    9.81858
373430.262700    0.09660    0.08457    0.25004    0.37708   -0.06032    9.81567
373430.272700    0.17469    0.26711    0.33203    0.36757   -0.06576    9.81324
373430.282700    0.11184    0.15327    0.18358    0.37046   -0.06752    9.82145
373430.292700   -0.01192    0.02240    0.50483    0.37610   -0.06761    9.81680
373430.302700    0.12227   -0.00252    0.19773    0.37576   -0.07060    9.80577
373430.312700   -0.16272    0.13499    0.20724    0.36988   -0.07016    9.81719
373430.322700   -0.02263    0.04142    0.26809    0.37187   -0.06387    9.81571
373430.332700    0.10439    0.05283    0.31026    0.36783   -0.06732    9.80647
373430.342700    0.16960    0.15332    0.09127    0.37699   -0.06841    9.81039
373430.352700   -0.04830    0.08612    0.12863    0.37058   -0.07378    9.82079
373430.362700    0.11408    0.05197    0.31129    0.37249   -0.05760    9.80674
373430.372700    0.05008    0.26482    0.18409    0.37580   -0.06416    9.81464
373430.382700    0.01157    0.08697    0.16937    0.37364   -0.06970    9.81861
373430.392700   -0.02527    0.02045    0.21623    0.37072   -0.07240    9.83503
373430.402700    0.00642    0.15882    0.19051    0.37282   -0.06030    9.81746
373430.412700   -0.01387   -0.04933    0.21108    0.37752   -0.06355    9.81213
373430.422700    0.16782    0.13338    0.06360    0.37364   -0.06566    9.81750
373430.432700    0.09757    0.11488    0.36480    0.35732   -0.06658    9.81326
373430.442700    0.06148    0.11591    0.28952    0.37237   -0.05704    9.80424
373430.452700    0.12685    0.16891    0.21240    0.36933   -0.06206    9.81355
373430.462700    0.05477    0.14845    0.17447    0.37667   -0.07161    9.81470
373430.472700    0.09282    0.09757    0.20437    0.36179   -0.05462    9.80637
373430.482700   -0.07380    0.08623    0.32515    0.37054   -0.07322    9.81935
373430.492700    0.14037   -0.01066    0.29817    0.37578   -0.07193    9.81470
373430.502700   -0.01014    0.05099    0.32269    0.36605   -0.06289    9.81535
373430.512700    0.13900    0.03478    0.25875    0.37297   -0.06239    9.80642
373430.522700   -0.12278    0.04927    0.22781    0.37407   -0.06491    9.82427
373430.532700    0.10365   -0.03959    0.18919    0.36475   -0.06658    9.81574
373430.542700    0.07643    0.04475    0.24070    0.36677   -0.06205    9.81499
373430.552700    0.07128    0.14524    0.36131    0.37214   -0.06233    9.81855
373430.562700    0.05964   -0.04876    0.37466    0.37583   -0.06993    9.82181
373430.572700    0.13046    0.10680    0.31965    0.36005   -0.06381    9.81216
373430.582700    0.02865    0.19423    0.21400    0.37826   -0.06174    9.80213
373430.592700    0.03684    0.27078    0.26751    0.38171   -0.05784    9.82564
373430.602700    0.00395    0.04515    0.25141    0.36360   -0.05975    9.81390
373430.612700    0.06148    0.03982    0.31518    0.37088   -0.06900    9.80790
373430.622700    0.20426    0.07133    0.14066    0.36984   -0.06785    9.80932
373430.632700   -0.00940    0.21939    0.15842    0.37178   -0.06800    9.81146
373430.642700    0.06537    0.06050    0.19131    0.36743   -0.07549    9.81403
373430.652700   -0.03329   -0.05357    0.30115    0.37166   -0.07241    9.81613
373430.662700   -0.09259    0.13608    0.13081    0.38048   -0.07871    9.80726
373430.672700    0.19423    0.01501    0.20363    0.36744   -0.07475    9.81295
373430.682700    0.06240    0.14903    0.40892    0.37586   -0.05350    9.80776
373430.692700   -0.20042    0.03575    0.19366    0.37401   -0.07127    9.81149
373430.702700   -0.02578    0.00372    0.27319    0.36722   -0.06792    9.82466
373430.712700    0.18352   -0.00877    0.11310    0.37945   -0.06370    9.80250
373430.722700    0.01524   -0.09941    0.24293    0.37039   -0.06969    9.81789
373430.732700    0.25227   -0.04853    0.26219    0.37027   -0.06535    9.82000
373430.742700   -0.04704    0.06555    0.26820    0.36426   -0.06184    9.81428
373430.752700    0.04085    0.21692    0.25892    0.35961   -0.06468    9.80290
373430.762700    0.05340    0.09471    0.19389    0.37359   -0.07710    9.81404
373430.772700    0.24706    0.08709    0.15865    0.36843   -0.06156    9.81212
373430.782700   -0.07168    0.22557    0.21016    0.37107   -0.06916    9.80969
373430.792700    0.14295    0.26769    0.20065    0.37103   -0.06830    9.81111
373430.802700    0.06790    0.05306    0.11362    0.37184   -0.06581    9.81395
373430.812700    0.16375    0.11929    0.41368    0.36908   -0.06581    9.81715
373430.822700    0.01054    0.26608    0.11952    0.37894   -0.06124    9.81747
373430.832700    0.12158    0.12399    0.34813    0.38192   -0.06879    9.82001
373430.842700    0.16530    0.07907    0.26494    0.37439   -0.06979    9.82182
373430.852700    0.15636    0.17733    0.23142    0.36560   -0.05612    9.81209
373430.862700    0.22139    0.06463    0.18535    0.36402   -0.07228    9.81472
373430.872700   -0.01713    0.10766    0.22689    0.36188   -0.06379    9.82393
373430.882700    0.02882    0.01530    0.05793    0.37230   -0.05922    9.82066
373430.892700    0.08377    0.08858    0.21022    0.36990   -0.06694    9.81360
373430.902700    0.12210   -0.07019    0.26643    0.37590   -0.07438    9.81114
373430.912700    0.23021    0.05191    0.14164    0.37090   -0.06262    9.82354
373430.922700    0.12221    0.11253    0.22884    0.36804   -0.06105    9.80998
373430.932700    0.14759   -0.16106    0.21939    0.37279   -0.07471    9.81472
373430.942700    0.14507   -0.02498    0.32447    0.36926   -0.07225    9.82184
373430.952700    0.04120   -0.00900    0.28940    0.37021   -0.06178    9.81320
373430.962700    0.02361    0.04400    0.17252    0.38135   -0.07104    9.81611
373430.972700    0.23274    0.05031    0.33254    0.37948   -0.07287    9.81471
373430.982700    0.07953    0.14628    0.39546    0.35806   -0.06345    9.81680
373430.992700   -0.04372   -0.03392    0.17722    0.37646   -0.06666    9.81323
373431.002700    0.10611    0.12811    0.28900    0.37219   -0.06892    9.81432
373431.012700    0.01948    0.04211    0.29542    0.36679   -0.07445    9.81616
373431.022700    0.10961   -0.05191    0.06996    0.36053   -0.05612    9.81851
373431.032700    0.16770    0.24379    0.34418    0.37417   -0.06610    9.81394
373431.042700    0.10852    0.16553    0.26368    0.36296   -0.06966    9.81613
373431.052700   -0.03054    0.15338    0.08692    0.35701   -0.06668    9.82111
373431.062700    0.11717    0.07695    0.28298    0.37432   -0.06431    9.81536
373431.072700    0.01994    0.16198    0.23841    0.37400   -0.07102    9.82076
373431.082700    0.23050    0.16553    0.23617    0.36610   -0.06910    9.82182
373431.092700    0.06262    0.04956    0.44977    0.37643   -0.06273    9.81818
373431.102700   -0.00292    0.10858    0.22076    0.36702   -0.07359    9.81187
373431.112700   -0.08400   -0.02510    0.18346    0.37644   -0.05492    9.81812
373431.122700    0.18134    0.14146    0.18163    0.36557   -0.06930    9.80649
373431.132700    0.04532    0.07529    0.42708    0.36954   -0.06893    9.81754
373431.142700    0.11219    0.12135    0.21199    0.37052   -0.06824    9.82216
373431.152700   -0.07529   -0.00493    0.08915    0.37223   -0.06489    9.81429
373431.162700    0.08531    0.07248    0.05506    0.38256   -0.06199    9.80782
373431.172700    0.09769    0.05569    0.20947    0.37060   -0.07031    9.81398
373431.182700   -0.05672    0.07282    0.31570    0.36987   -0.06671    9.81965
373431.192700    0.08422    0.06572    0.26052    0.37115   -0.06023    9.81532
373431.202700    0.09603    0.22437    0.19715    0.38069   -0.07612    9.81331
373431.212700   -0.00917    0.08422    0.19572    0.36950   -0.06409    9.82963
373431.222700    0.09207    0.03965    0.40313    0.36510   -0.07098    9.82041
373431.232700   -0.05810    0.12777    0.31633    0.36697   -0.07116    9.80687
373431.242700    0.06675    0.13499    0.33020    0.36600   -0.05934    9.81461
373431.252700    0.17366    0.11247    0.17172    0.37191   -0.06817    9.81503
373431.262700    0.17137   -0.08675    0.30332    0.37133   -0.07058    9.81648
373431.272700    0.13063   -0.04097    0.21704    0.36518   -0.07194    9.81792
373431.282700    0.02773    0.11070    0.35340    0.37145   -0.05798    9.81281
373431.292700   -0.01238    0.06280    0.21904    0.37466   -0.06209    9.80998
373431.302700   -0.06990    0.15338    0.30556    0.36971   -0.06086    9.81319
373431.312700   -0.01495    0.06824    0.23881    0.36706   -0.06664    9.80968
373431.322700    0.18060    0.26104    0.23841    0.36250   -0.06926    9.81969
373431.332700   -0.00424    0.10096    0.30774    0.36464   -0.06324    9.80894
373431.342700    0.07649    0.18077    0.44467    0.37351   -0.06675    9.82287
373431.352700   -0.09385    0.05197    0.34360    0.36788   -0.07222    9.81614
373431.362700    0.06033    0.02309    0.23113    0.36130   -0.06518    9.81787
373431.372700    0.13247    0.13264    0.13929    0.37186   -0.07270    9.81150
373431.382700   -0.07660    0.13041    0.38342    0.36710   -0.07529    9.82152
373431.392700    0.03438    0.29393    0.37053    0.37167   -0.06037    9.81319
373431.402700    0.13482    0.11110    0.27582    0.37293   -0.06651    9.82001
373431.412700    0.19372    0.10531    0.27949    0.38020   -0.07194    9.82183
373431.422700   -0.04784    0.15252    0.25273    0.37216   -0.06548    9.82357
373431.432700    0.09190   -0.02664    0.12720    0.37375   -0.07335    9.81578
373431.442700   -0.13946    0.15321    0.35552    0.38044   -0.06598    9.82142
373431.452700    0.08778   -0.02103    0.29215    0.36687   -0.06789    9.81218
373431.462700    0.21692    0.18690    0.23526    0.37533   -0.07190    9.81185
373431.472700   -0.04905    0.16725    0.17469    0.36811   -0.06429    9.80965
373431.482700   -0.12141    0.10697    0.27594    0.36908   -0.07218    9.81971
373431.492700    0.05426    0.07082    0.40462    0.37052   -0.06828    9.81290
373431.502700    0.04629    0.01071    0.26969    0.37543   -0.06994    9.81433
373431.512700    0.04807    0.10657    0.24202    0.38188   -0.06305    9.81890
373431.522700    0.03587    0.23400    0.41494    0.37320   -0.06378    9.81678
373431.532700    0.00716    0.31564    0.28625    0.37614   -0.06453    9.80501
373431.542700    0.13121    0.10078    0.22208    0.36580   -0.07166    9.82220
373431.552700    0.04939    0.06778    0.23365    0.36469   -0.06247    9.81392
373431.562700    0.13705    0.08755    0.06251    0.37990   -0.07330    9.81755
373431.572700    0.01043   -0.10468    0.38136    0.38414   -0.07129    9.81325
373431.582700    0.12794   -0.01954    0.34635    0.37401   -0.06504    9.82071
373431.592700    0.11104   -0.05008    0.21463    0.37172   -0.06570    9.81751
373431.602700    0.03243   -0.04475   -0.09053    0.36927   -0.06278    9.81035
373431.612700    0.12502    0.15699    0.17871    0.37109   -0.06570    9.82001
373431.622700   -0.08377    0.06675    0.24230    0.36392   -0.06379    9.82250
373431.632700    0.00086   -0.00888    0.20879    0.37392   -0.06689    9.81181
373431.642700    0.02269    0.08892    0.33128    0.37190   -0.06825    9.81789
373431.652700    0.24494   -0.02584    0.30894    0.37344   -0.07284    9.82434
373431.662700    0.03466   -0.15676    0.32785    0.38041   -0.06654    9.81499
373431.672700    0.07208    0.03799    0.28390    0.37369   -0.06861    9.81432
373431.682700    0.16404    0.07534    0.41751    0.37309   -0.07716    9.81332
373431.692700   -0.00195    0.06853    0.39047    0.38020   -0.06198    9.81675
373431.702700    0.09654    0.03621    0.10571    0.37178   -0.06098    9.80998
373431.712700    0.08296    0.09333    0.23726    0.37532   -0.06687    9.81180
373431.722700    0.12639    0.00596    0.11207    0.37064   -0.06747    9.81895
373431.732700    0.07357    0.26637    0.24374    0.37663   -0.07443    9.81900
373431.742700    0.22454   -0.16008    0.24660    0.38074   -0.06867    9.81894
373431.752700   -0.06474    0.06812    0.29335    0.37221   -0.06530    9.81537
373431.762700    0.06503    0.11757    0.26763    0.37217   -0.06650    9.81894
373431.772700    0.16816    0.14673    0.19681    0.37121   -0.06751    9.80753
373431.782700    0.09631    0.09511    0.21394    0.36916   -0.06720    9.81538
373431.792700    0.05993    0.13264    0.38669    0.37359   -0.06783    9.82109
373431.802700    0.23749    0.14811    0.14227    0.36562   -0.05477    9.80815
373431.812700   -0.06394    0.18123    0.29307    0.36976   -0.07908    9.81192
373431.822700   -0.15367    0.20334    0.23806    0.38068   -0.06258    9.81176
373431.832700    0.09236    0.04756    0.23027    0.35918   -0.06557    9.81395
373431.842700    0.10795    0.20208    0.23062    0.37686   -0.05614    9.80530
373431.852700    0.17957    0.12829    0.08663    0.37564   -0.06285    9.81926
373431.862700    0.16925    0.02865    0.25926    0.37305   -0.07333    9.81578
373431.872700    0.19011   -0.00561    0.20460    0.36825   -0.07645    9.80940
373431.882700    0.10382    0.17722    0.27622    0.36768   -0.07124    9.81863
373431.892700    0.25227    0.01220    0.22162    0.37437   -0.05659    9.82599
373431.902700    0.25176    0.25474    0.12748    0.37244   -0.06733    9.81289
373431.912700    0.19143    0.16461    0.28911    0.36736   -0.06489    9.82143
373431.922700    0.11471    0.08348    0.35380    0.37512   -0.08058    9.82297
373431.932700    0.10130    0.15458    0.25141    0.37362   -0.07132    9.81291
373431.942700    0.09379    0.02515    0.08325    0.36993   -0.07091    9.81791
373431.952700    0.14410    0.03163    0.17469    0.35948   -0.06555    9.80575
373431.962700    0.18243    0.07024    0.25903    0.36388   -0.06101    9.81534
373431.972700    0.05042    0.07769    0.33575    0.38527   -0.06718    9.80752
373431.982700   -0.03759    0.22907    0.30619    0.36935   -0.06155    9.80785
373431.992700    0.11912    0.14845    0.24419    0.37442   -0.07646    9.81830
373432.002700    0.03959   -0.08657    0.09878    0.36935   -0.07109    9.81398
373432.012700    0.13808    0.02183    0.21606    0.37477   -0.07642    9.81331
373432.022700    0.09013   -0.08571    0.28287    0.37459   -0.07300    9.81863
373432.032700    0.06916    0.14714    0.25479    0.37111   -0.06682    9.82180
373432.042700    0.05168    0.12084    0.23239    0.37528   -0.06518    9.81393
373432.052700   -0.04062   -0.13344    0.31146    0.37274   -0.07176    9.80864
373432.062700    0.06520    0.05558    0.09041    0.37882   -0.07367    9.81614
373432.072700    0.19389    0.07649    0.25462    0.37263   -0.07222    9.81935
373432.082700    0.15688    0.06417    0.37827    0.37817   -0.07060    9.81361
373432.092700    0.10646    0.12427    0.40479    0.37402   -0.07297    9.81614
373432.102700   -0.02378    0.04899    0.18592    0.37816   -0.05894    9.81458
373432.112700    0.08881    0.27244    0.32068    0.37549   -0.05262    9.81561
373432.122700   -0.03289    0.16192    0.15424    0.37050   -0.07182    9.81471
373432.132700    0.05426    0.09969    0.15109    0.37089   -0.07168    9.81756
373432.142700    0.19641   -0.00745    0.30699    0.36994   -0.06571    9.81465
373432.152700    0.07156    0.11184    0.33822    0.38079   -0.07165    9.80613
373432.162700    0.02395    0.29805    0.19778    0.37034   -0.07414    9.81259
373432.172700    0.17447    0.25554    0.23669    0.37036   -0.06159    9.81105
373432.182700    0.15562    0.05071    0.21686    0.37639   -0.06476    9.81606
373432.192700    0.00264    0.11087    0.28894    0.36461   -0.07417    9.81724
373432.202700   -0.04079    0.19589    0.32349    0.36524   -0.06327    9.81679
373432.212700    0.14312    0.03787    0.19355    0.36193   -0.05865    9.81568
373432.222700   -0.00819    0.18380    0.20088    0.37951   -0.07922    9.82225
373432.232700   -0.06738    0.14966    0.26986    0.37014   -0.07764    9.81726
373432.242700    0.16765    0.17859    0.11241    0.37113   -0.07155    9.81756
373432.252700    0.03272    0.06222    0.07947    0.37079   -0.06358    9.80286
373432.262700    0.01960    0.00647    0.20523    0.37149   -0.07379    9.80830
373432.272700   -0.01226    0.06979    0.20844    0.36366   -0.06863    9.81897
373432.282700    0.20460    0.18071    0.26929    0.36935   -0.06274    9.80714
373432.292700   -0.02893    0.00017    0.11814    0.37297   -0.06486    9.80858
373432.302700    0.02275   -0.03358   -0.02779    0.37917   -0.07029    9.81932
373432.312700    0.10015    0.04154    0.38715    0.37579   -0.06338    9.82461
373432.322700   -0.01856   -0.10073    0.33736    0.37516   -0.06345    9.81926
373432.332700    0.07506    0.13086    0.37609    0.38602   -0.06227    9.82566
373432.342700   -0.00980    0.00928    0.27307    0.36709   -0.06236    9.81356
373432.352700    0.09156   -0.04893    0.30155    0.36642   -0.06142    9.80856
373432.362700    0.11683    0.23577    0.28705    0.37870   -0.06816    9.81466
373432.372700    0.08084    0.03764    0.51887    0.37885   -0.06572    9.82427
373432.382700    0.09803    0.08675    0.17275    0.36517   -0.05281    9.80493
373432.392700    0.17292   -0.07334    0.29719    0.37994   -0.06838    9.80967
373432.402700    0.15424    0.07179    0.12003    0.37303   -0.07539    9.82472
373432.412700    0.19291    0.29719    0.25273    0.37446   -0.06400    9.81072
373432.422700    0.06555    0.06555    0.27582    0.37489   -0.05104    9.81381
373432.432700    0.04715    0.11803    0.24970    0.36223   -0.05791    9.82423
373432.442700   -0.00189   -0.07214    0.29971    0.37139   -0.06442    9.82320
373432.452700    0.09144    0.04469    0.20506    0.37194   -0.06862    9.81432
373432.462700    0.05672   -0.10216    0.42622    0.36894   -0.06309    9.81785
373432.472700    0.15006    0.15430    0.14467    0.36496   -0.06406    9.82071
373432.482700    0.20598    0.22214    0.28533    0.36413   -0.05854    9.81996
373432.492700    0.20065    0.13803    0.31352    0.37140   -0.07162    9.81221
373432.502700    0.05426    0.14559    0.31404    0.37987   -0.07822    9.81546
373432.512700   -0.03283    0.09620    0.29708    0.37026   -0.07663    9.81368
373432.522700    0.08102    0.12273    0.21469    0.37603   -0.06512    9.81393
373432.532700    0.01381    0.07947    0.29364    0.37569   -0.07377    9.81721
373432.542700    0.07643    0.07431    0.37259    0.36896   -0.07963    9.82012
373432.552700    0.10663    0.06045    0.25434    0.37151   -0.06383    9.80500
373432.562700   -0.05546    0.03048    0.27479    0.35744   -0.07227    9.79903
373432.572700    0.06056    0.17584    0.13098    0.37834   -0.06575    9.81964
373432.582700    0.09162    0.16008    0.30063    0.37921   -0.07635    9.83078
373432.592700    0.08973    0.12250    0.15917    0.37183   -0.07207    9.80650
373432.602700    0.00544    0.30493    0.32315    0.37130   -0.05796    9.81388
373432.612700    0.00905    0.21400    0.30476    0.38190   -0.07228    9.82754
373432.622700   -0.11854   -0.03415    0.21749    0.37467   -0.05735    9.81280
373432.632700    0.14083    0.06595    0.35924    0.37056   -0.07130    9.80864
373432.642700   -0.05987    0.10336    0.17779    0.36915   -0.06908    9.80898
373432.652700   -0.00223    0.00567    0.38188    0.37026   -0.07497    9.81402
373432.662700    0.11826    0.20701    0.42141    0.37146   -0.07100    9.81078
373432.672700    0.04658    0.18919    0.26167    0.36115   -0.07423    9.80547
373432.682700    0.02189    0.14863    0.26110    0.37249   -0.06898    9.81968
373432.692700   -0.02103    0.07219    0.29175    0.36222   -0.06355    9.81643
373432.702700   -0.01438    0.08927    0.15722    0.38123   -0.07139    9.81290
373432.712700    0.08594    0.32859    0.10628    0.37562   -0.07057    9.81754
373432.722700    0.23537    0.20999    0.15911    0.37556   -0.06773    9.81538
373432.732700    0.02773   -0.11998    0.50340    0.38210   -0.06828    9.81287
373432.742700    0.00000    0.29204    0.24958    0.37543   -0.06453    9.81429
373432.752700    0.15493    0.15413    0.27576    0.37120   -0.06815    9.82466
373432.762700    0.11241   -0.03071    0.14994    0.36827   -0.07341    9.82007
373432.772700    0.01799    0.08549    0.23726    0.37738   -0.07456    9.80830
373432.782700    0.06537    0.10073    0.30596    0.37639   -0.06470    9.82569
373432.792700    0.19561    0.10273    0.28751    0.35104   -0.05554    9.80711
373432.802700    0.21772    0.07529    0.44628    0.36041   -0.05477    9.79888
373432.812700    0.04423    0.00584    0.09792    0.38380   -0.07402    9.82397
373432.822700    0.11367   -0.06749    0.15894    0.36551   -0.07370    9.82115
373432.832700    0.21062   -0.09947    0.23726    0.37203   -0.05714    9.81672
373432.842700    0.11488    0.11499    0.21664    0.37394   -0.07340    9.81971
373432.852700    0.14037    0.03845    0.41585    0.37189   -0.06135    9.81997
373432.862700    0.06681    0.05363    0.37724    0.36778   -0.06307    9.81892
373432.872700    0.05942   -0.00665    0.07970    0.36669   -0.06137    9.81391
373432.882700    0.09740    0.04039    0.35311    0.37535   -0.06548    9.81999
373432.892700   -0.07523    0.01707    0.17160    0.36645   -0.06174    9.82283
373432.902700    0.04108    0.07534    0.17349    0.37460   -0.06385    9.80429
373432.912700    0.09981    0.09408    0.16908    0.37198   -0.07054    9.82147
373432.922700    0.22506    0.11345    0.25187    0.37541   -0.08813    9.81163
373432.932700    0.08726    0.01805    0.22110    0.36581   -0.07800    9.81263
373432.942700   -0.03535    0.12823    0.38107    0.36703   -0.07830    9.81513
373432.952700   -0.01971    0.13602    0.02447    0.36851   -0.07422    9.81438
373432.962700    0.07202    0.16667    0.35787    0.37257   -0.06235    9.82425
373432.972700    0.11287    0.09322    0.30802    0.36774   -0.06481    9.81072
373432.982700    0.09270    0.10955    0.24076    0.37083   -0.06445    9.81643
373432.992700    0.08761    0.08262   -0.02899    0.37015   -0.06204    9.81962
373433.002700    0.02974    0.07649    0.22282    0.37330   -0.06629    9.80645
373433.012700   -0.06108   -0.04503    0.27072    0.36477   -0.06149    9.81784
373433.022700    0.09064    0.15006    0.25130    0.37262   -0.07748    9.81618
373433.032700    0.03850    0.17109    0.24666    0.36725   -0.05108    9.81775
373433.042700    0.02418   -0.02492    0.20254    0.36988   -0.06518    9.81715
373433.052700    0.07998   -0.04452    0.30069    0.37591   -0.07817    9.82402
373433.062700   -0.04452    0.15716    0.17836    0.37738   -0.07141    9.82183
373433.072700   -0.00458    0.06463    0.35712    0.35971   -0.06084    9.80215
373433.082700    0.09752    0.00413    0.29307    0.38227   -0.07332    9.80757
373433.092700    0.19801   -0.10605    0.18799    0.36506   -0.06233    9.81214
373433.102700   -0.08892    0.13453    0.17492    0.36840   -0.06851    9.81539
373433.112700    0.17097    0.02028    0.19108    0.37610   -0.06983    9.81432
373433.122700    0.13585   -0.01398    0.21984    0.37794   -0.07811    9.82687
373433.132700    0.09454   -0.02504    0.38205    0.37263   -0.06582    9.81536
373433.142700    0.04481    0.07987    0.27937    0.37297   -0.07172    9.81220
373433.152700    0.02538    0.08079    0.32510    0.37567   -0.07073    9.81327
373433.162700    0.06589    0.17722    0.46450    0.37309   -0.06176    9.81248
373433.172700   -0.06790    0.12359    0.26092    0.36871   -0.06142    9.81391
373433.182700    0.05460   -0.06194    0.39912    0.37343   -0.07694    9.81295
373433.192700    0.10267   -0.00458    0.19652    0.37334   -0.06859    9.81111
373433.202700   -0.00550    0.05936    0.40308    0.37188   -0.06490    9.81251
373433.212700    0.11700   -0.11345    0.25537    0.36826   -0.07094    9.81470
373433.222700    0.21732    0.07792    0.30115    0.37649   -0.07256    9.81684
373433.232700    0.09855   -0.14903    0.22024    0.36555   -0.06576    9.82572
373433.242700    0.09311    0.16152    0.22695    0.37492   -0.06919    9.82110
373433.252700    0.13453    0.11786    0.17716    0.37010   -0.06820    9.81504
373433.262700    0.10073    0.28860    0.42834    0.37870   -0.07500    9.82543
373433.272700    0.10737    0.22368    0.40170    0.35952   -0.07204    9.82543
373433.282700   -0.06646    0.08554    0.32733    0.37082   -0.06494    9.81073
373433.292700    0.05420    0.11981    0.20930    0.37746   -0.07304    9.82255
373433.302700    0.12370    0.12450    0.17275    0.36046   -0.07311    9.81723
373433.312700    0.10731    0.08337    0.19876    0.37574   -0.07415    9.80187
373433.322700    0.04498    0.19154    0.34698    0.37774   -0.08414    9.81337
373433.332700   -0.16977    0.09293    0.39276    0.37782   -0.07112    9.82075
373433.342700   -0.03014    0.05787    0.16627    0.36153   -0.06634    9.82145
373433.352700    0.10164   -0.03535    0.13298    0.37196   -0.06677    9.81573
373433.362700    0.09477   -0.00304    0.30676    0.36921   -0.06201    9.81962
373433.372700    0.03231    0.29874    0.29731    0.37104   -0.06545    9.82536
373433.382700   -0.01404    0.24368    0.18358    0.36485   -0.05809    9.81674
373433.392700    0.10731    0.07752    0.24821    0.37330   -0.07382    9.81222
373433.402700    0.08268    0.01220    0.17750    0.36849   -0.06484    9.81287
373433.412700    0.09207    0.17590    0.22804    0.37564   -0.07240    9.81078
373433.422700    0.03506   -0.01295    0.24024    0.37649   -0.07143    9.81077
373433.432700    0.10921    0.08113    0.26975    0.37787   -0.07674    9.81723
373433.442700    0.07282    0.18701    0.32825    0.37048   -0.07443    9.82651
373433.452700    0.01799    0.00006    0.34498    0.36977   -0.06252    9.80857
373433.462700   -0.01547    0.13843    0.28081    0.37505   -0.07516    9.82115
373433.472700    0.08869    0.09299    0.33593    0.36841   -0.06242    9.81320
373433.482700    0.11413    0.11637    0.27387    0.36806   -0.06372    9.81857
373433.492700    0.01369   -0.09786    0.31942    0.36034   -0.07041    9.81435
373433.502700    0.03231    0.13906    0.44043    0.37254   -0.06824    9.81360
373433.512700   -0.03105    0.01306    0.32888    0.37958   -0.07524    9.80367
373433.522700    0.19555   -0.14439    0.37133    0.36832   -0.06855    9.81040
373433.532700    0.11854   -0.08182    0.29398    0.37491   -0.07548    9.81793
373433.542700    0.04125   -0.00458    0.28797    0.37367   -0.06686    9.81822
373433.552700    0.16387    0.11791    0.17842    0.37363   -0.06776    9.81930
373433.562700   -0.03518   -0.04498    0.25130    0.38010   -0.07900    9.81546
373433.572700    0.20294   -0.08125    0.10943    0.37304   -0.06356    9.81998
373433.582700    0.17515    0.09998    0.32470    0.36495   -0.05880    9.82352
373433.592700    0.27622    0.05380    0.25073    0.37851   -0.07485    9.81828
373433.602700    0.09087    0.13705    0.20426    0.37463   -0.07477    9.81401
373433.612700    0.13006    0.12152    0.25279    0.36840   -0.07653    9.81118
373433.622700    0.15000   -0.06681    0.09036    0.36052   -0.05726    9.81817
373433.632700    0.10875    0.09488    0.17401    0.37122   -0.06612    9.82143
373433.642700    0.00974    0.06331    0.10668    0.37095   -0.06314    9.82034
373433.652700    0.00745   -0.01455    0.29788    0.37413   -0.06651    9.82071
373433.662700    0.03449    0.17223    0.29530    0.36741   -0.07523    9.80190
373433.672700   -0.12003    0.08715    0.38600    0.37014   -0.07082    9.82041
373433.682700    0.09952    0.18942    0.37431    0.37350   -0.06477    9.81001
373433.692700    0.01513   -0.05191    0.05506    0.36753   -0.06147    9.80856
373433.702700    0.03455   -0.05569    0.29908    0.37062   -0.07032    9.81755
373433.712700   -0.02160    0.23720    0.27892    0.37174   -0.06768    9.81574
373433.722700    0.14754    0.07477    0.20999    0.37115   -0.05998    9.80854
373433.732700   -0.10262    0.15745    0.41522    0.37255   -0.06810    9.80790
373433.742700   -0.00435    0.09013    0.26700    0.37574   -0.07137    9.80792
373433.752700    0.03650    0.00659    0.20099    0.37089   -0.05998    9.81246
373433.762700    0.08824    0.17051    0.37718    0.36393   -0.07865    9.80835
373433.772700   -0.01003    0.02756    0.31914    0.37473   -0.06688    9.82465
373433.782700   -0.10388    0.24683    0.24007    0.36627   -0.06598    9.82180
373433.792700    0.11465    0.23594    0.19034    0.37613   -0.06435    9.80893
373433.802700    0.18295    0.06589    0.43671    0.37405   -0.06326    9.81391
373433.812700    0.06085    0.06967    0.49217    0.38021   -0.06886    9.82430
373433.822700   -0.07391   -0.04761    0.15882    0.36726   -0.06897    9.82396
373433.832700    0.08480    0.09872    0.51452    0.36769   -0.06135    9.80428
373433.842700   -0.07672    0.08159    0.16816    0.38437   -0.07517    9.81400
373433.852700    0.08715    0.08944    0.43911    0.36906   -0.05582    9.82207
373433.862700    0.17481    0.06176    0.36876    0.36473   -0.06586    9.81216
373433.872700    0.15533   -0.00407    0.21933    0.37889   -0.06607    9.82178
373433.882700    0.11413    0.06033    0.37855    0.36924   -0.07510    9.82222
373433.892700    0.21194    0.18209    0.31547    0.37634   -0.07083    9.82147
373433.902700    0.02372    0.05271    0.28241    0.36708   -0.06041    9.80891
373433.912700   -0.10835    0.08915    0.13762    0.37634   -0.06076    9.82281
373433.922700    0.01954    0.17876    0.17785    0.37079   -0.06761    9.81325
373433.932700    0.06864    0.04612    0.30390    0.36824   -0.07001    9.81576
373433.942700   -0.00395    0.01765    0.16862    0.37158   -0.06935    9.81539
373433.952700    0.03925    0.00779    0.27026    0.37822   -0.06853    9.82358
373433.962700    0.05901    0.19819    0.24591    0.36622   -0.06173    9.80464
373433.972700    0.23835    0.04343    0.36807    0.37125   -0.07024    9.81112
373433.982700    0.17911    0.07059    0.34905    0.36689   -0.07849    9.81976
373433.992700    0.03266    0.12044    0.19876    0.37711   -0.06825    9.81038
373434.002700    0.24924    0.14519    0.42330    0.36989   -0.08021    9.81621
373434.012700   -0.02510    0.02956    0.24385    0.36407   -0.07421    9.80689
373434.022700    0.21812    0.03570    0.16008    0.35855   -0.06954    9.81577
373434.032700    0.08497    0.08508    0.21784    0.36672   -0.06757    9.81467
373434.042700   -0.07729    0.00550    0.33615    0.37675   -0.07216    9.80899
373434.052700    0.16765   -0.01822    0.37981    0.37346   -0.07640    9.82115
373434.062700    0.00710   -0.00779    0.24929    0.37509   -0.06105    9.81603
373434.072700    0.21337    0.06509    0.11052    0.37670   -0.07093    9.81255
373434.082700    0.14610    0.00000    0.43705    0.36677   -0.07273    9.80794
373434.092700    0.15212    0.04738    0.25474    0.37162   -0.06171    9.81319
373434.102700   -0.04062    0.11287    0.39225    0.36834   -0.05912    9.81175
373434.112700    0.15607    0.01387    0.22890    0.37208   -0.07502    9.81829
373434.122700   -0.06904   -0.03300    0.33902    0.37168   -0.07240    9.82613
373434.132700   -0.07735   -0.08405    0.36056    0.37582   -0.06222    9.80926
373434.142700    0.02017    0.06732    0.32349    0.37564   -0.07206    9.80472
373434.152700    0.14175   -0.07552    0.26889    0.38240   -0.06707    9.82107
373434.162700    0.00120    0.16083    0.24087    0.38222   -0.06408    9.81427
373434.172700    0.05174    0.13602    0.06881    0.36291   -0.06409    9.81359
373434.182700    0.14565    0.23531    0.33295    0.38108   -0.07055    9.81754
373434.192700    0.01730   -0.04767    0.18403    0.37172   -0.06730    9.82108
373434.202700    0.00619   -0.06033    0.31874    0.37900   -0.07546    9.81508
373434.212700    0.18077    0.05122    0.24947    0.36497   -0.06608    9.80539
373434.222700    0.02401   -0.08938    0.23640    0.36906   -0.08518    9.81196
373434.232700   -0.06240   -0.02956    0.17412    0.36722   -0.06590    9.82143
373434.242700    0.18358    0.14376    0.26264    0.36938   -0.06265    9.80893
373434.252700    0.02584    0.02991    0.35157    0.36876   -0.06210    9.81463
373434.262700    0.02126    0.21927    0.23973    0.37983   -0.07711    9.82580
373434.272700    0.17269    0.06933    0.27720    0.36221   -0.06163    9.81856
373434.282700    0.12972    0.05850    0.21629    0.37024   -0.06620    9.81787
373434.292700    0.09998    0.18386    0.18713    0.36914   -0.07763    9.80655
373434.302700    0.11906    0.19395    0.34756    0.37179   -0.06892    9.81076
373434.312700    0.03953    0.09150    0.28402    0.37387   -0.06965    9.81040
373434.322700    0.11133    0.01409    0.16541    0.36826   -0.07645    9.82117
373434.332700   -0.06205    0.00670    0.09333    0.37783   -0.05932    9.81780
373434.342700    0.15052    0.14507    0.23549    0.36913   -0.07025    9.81577
373434.352700    0.13430    0.07924    0.35890    0.38027   -0.07391    9.82506
373434.362700    0.17899    0.16261    0.26259    0.37603   -0.07606    9.81973
373434.372700    0.10634    0.18060    0.25176    0.36767   -0.06825    9.81326
373434.382700    0.00092    0.11362    0.29376    0.36388   -0.05278    9.81670
373434.392700   -0.15705    0.12410    0.30945    0.37534   -0.06806    9.81502
373434.402700    0.03845    0.08222    0.22850    0.37090   -0.06830    9.81325
373434.412700    0.00510    0.07844    0.10651    0.37283   -0.06144    9.81319
373434.422700    0.02550    0.16971    0.34028    0.36933   -0.06308    9.81892
373434.432700    0.08898    0.19486    0.10726    0.37320   -0.06617    9.81466
373434.442700    0.21881    0.10949    0.31581    0.37115   -0.07225    9.80687
373434.452700   -0.05082   -0.07603    0.06303    0.36870   -0.07665    9.80904
373434.462700    0.12548    0.19905    0.42640    0.38141   -0.06498    9.81821
373434.472700   -0.06686    0.01197    0.20707    0.36920   -0.06841    9.81611
373434.482700   -0.05575   -0.00109    0.10227    0.36535   -0.06569    9.81145
373434.492700    0.00871    0.13774    0.29651    0.36853   -0.07961    9.82048
373434.502700    0.00791    0.13888    0.31793    0.36986   -0.06893    9.82146
373434.512700    0.06835    0.10611    0.13619    0.37258   -0.07447    9.81865
373434.522700    0.11259    0.16879    0.18661    0.37354   -0.06992    9.81683
373434.532700    0.18793    0.20288    0.08428    0.36737   -0.07462    9.82401
373434.542700    0.21240   -0.07827    0.27107    0.36582   -0.06405    9.81821
373434.552700    0.01020    0.18335    0.23107    0.36695   -0.06249    9.81499
373434.562700    0.11224    0.09557    0.11786    0.37787   -0.06812    9.82108
373434.572700   -0.07202    0.14072    0.14141    0.37326   -0.05936    9.82280
373434.582700   -0.01501    0.09024    0.43768    0.37668   -0.07305    9.81043
373434.592700    0.05013    0.24385    0.35546    0.36724   -0.07211    9.81543
373434.602700    0.05466    0.07964    0.22615    0.36634   -0.06414    9.82357
373434.612700   -0.07655   -0.03037    0.16175    0.37343   -0.07150    9.80471
373434.622700    0.06274    0.14456    0.38371    0.37818   -0.07819    9.81474
373434.632700   -0.01140    0.06709    0.47527    0.37404   -0.06663    9.82643
373434.642700    0.17332    0.22219    0.31914    0.36492   -0.06463    9.81965
373434.652700    0.05380   -0.06285    0.38291    0.37443   -0.06928    9.81646
373434.662700   -0.00728    0.07454    0.36503    0.36984   -0.06490    9.81786
373434.672700    0.02819    0.14771    0.24666    0.38082   -0.06757    9.81288
373434.682700    0.07437    0.12869    0.14083    0.37456   -0.05743    9.81993
373434.692700    0.10405    0.10617    0.36962    0.37768   -0.05742    9.81672
373434.702700    0.04767    0.05718    0.23165    0.36946   -0.06210    9.81641
373434.712700    0.02189   -0.12072    0.23033    0.37204   -0.06102    9.81211
373434.722700    0.12324    0.01942    0.25439    0.36369   -0.07348    9.81331
373434.732700    0.19257    0.08004    0.38869    0.37996   -0.07089    9.82431
373434.742700   -0.04939    0.04629    0.21257    0.36397   -0.06107    9.81427
373434.752700   -0.01404    0.20684    0.29101    0.37141   -0.05700    9.80995
373434.762700   -0.05861    0.08864    0.24654    0.36253   -0.06529    9.81752
373434.772700    0.03598    0.12502    0.34251    0.38124   -0.06223    9.82282
373434.782700   -0.07403    0.10909    0.23388    0.37289   -0.06629    9.81037
373434.792700   -0.08743    0.15974    0.32068    0.38130   -0.08212    9.81299
373434.802700   -0.03707    0.16249    0.25634    0.37154   -0.06419    9.81964
373434.812700    0.12330    0.13104    0.33478    0.37252   -0.07133    9.81791
373434.822700    0.01862    0.14227    0.23566    0.38043   -0.06688    9.81144
373434.832700    0.03226    0.12204    0.28321    0.36567   -0.06723    9.81825
373434.842700   -0.00802    0.01805    0.22993    0.37644   -0.06867    9.81289
373434.852700   -0.05655    0.06646    0.29244    0.36092   -0.07801    9.81870
373434.862700    0.17968    0.03701    0.40170    0.36742   -0.07368    9.80795
373434.872700    0.10760   -0.05655    0.16685    0.37661   -0.07711    9.82437
373434.882700    0.16937    0.16925    0.30401    0.36758   -0.06681    9.80968
373434.892700   -0.02441    0.11889    0.14169    0.37397   -0.06865    9.82145
373434.902700    0.00000   -0.08079    0.20420    0.37585   -0.06549    9.81750
373434.912700    0.10330    0.15040    0.26723    0.37770   -0.06607    9.81393
373434.922700    0.04074    0.16054    0.24190    0.36622   -0.06279    9.80430
373434.932700    0.17945    0.17899    0.16960    0.37026   -0.07748    9.82260
373434.942700    0.25204    0.07924    0.31014    0.37561   -0.05941    9.81495
373434.952700    0.08239    0.22334    0.34670    0.36706   -0.07276    9.81829
373434.962700    0.19131    0.17154    0.22701    0.36643   -0.06884    9.81433
373434.972700    0.07890    0.13774    0.13906    0.37460   -0.06066    9.81889
373434.982700    0.11299   -0.10674    0.32911    0.36415   -0.06064    9.81247
373434.992700    0.03535    0.05334    0.20202    0.37643   -0.06412    9.81499
373435.002700    0.02859    0.07993    0.17057    0.37615   -0.06899    9.81717
373435.012700    0.02349   -0.01833    0.22655    0.37572   -0.06173    9.81497
373435.022700    0.02114    0.25565    0.28006    0.36829   -0.07277    9.81008
373435.032700    0.06113   -0.08125    0.32109    0.36516   -0.07282    9.81116
373435.042700    0.05626    0.14565    0.31473    0.36709   -0.07103    9.81578
373435.052700    0.05271    0.11453    0.20099    0.36669   -0.07174    9.81008
373435.062700    0.11081    0.01409    0.28470    0.36818   -0.06792    9.81147
373435.072700    0.09488    0.04979    0.11528    0.37819   -0.06199    9.82031
373435.082700    0.10359    0.07511    0.42897    0.37221   -0.05928    9.80817
373435.092700   -0.01564    0.09116    0.28774    0.37466   -0.06419    9.81356
373435.102700    0.09311    0.08274    0.21274    0.37741   -0.06609    9.81643
373435.112700    0.11327    0.33805    0.28081    0.36928   -0.06479    9.82143
373435.122700    0.12777    0.09276    0.19131    0.36046   -0.06267    9.80644
373435.132700    0.00676    0.07466    0.23772    0.37506   -0.07968    9.81833
373435.142700   -0.04395   -0.00819    0.09723    0.37412   -0.07304    9.82755
373435.152700    0.04647    0.07981    0.13940    0.37492   -0.06306    9.81427
373435.162700    0.04796    0.04034    0.25239    0.37787   -0.07482    9.81614
373435.172700   -0.02853   -0.18948    0.23417    0.37595   -0.07454    9.81400
373435.182700    0.06933    0.09700    0.38577    0.38057   -0.06510    9.81641
373435.192700    0.07735    0.14903    0.24402    0.37212   -0.06891    9.80934
373435.202700   -0.03650    0.16805    0.14771    0.37490   -0.06766    9.81895
373435.212700    0.14003    0.01914    0.18982    0.36128   -0.06137    9.82034
373435.222700    0.06721    0.10525    0.27886    0.37629   -0.06135    9.80819
373435.232700   -0.00739    0.03770    0.22546    0.38095   -0.07095    9.82324
373435.242700   -0.25852   -0.07311    0.35982    0.37667   -0.06742    9.82821
373435.252700    0.18037    0.11436    0.27554    0.36530   -0.07002    9.80008
373435.262700    0.00109    0.23342    0.37351    0.37084   -0.07385    9.81829
373435.272700    0.06182    0.03839    0.37431    0.37059   -0.06409    9.81749
373435.282700    0.17412    0.07517    0.18071    0.36877   -0.06551    9.81073
373435.292700    0.09299    0.16736    0.11643    0.36420   -0.07211    9.80545
373435.302700    0.14370    0.09878    0.15819    0.37513   -0.07426    9.82221
373435.312700   -0.08818    0.17693    0.18696    0.37837   -0.06912    9.81253
373435.322700   -0.01495    0.06062    0.43235    0.37333   -0.07278    9.81436
373435.332700    0.07976    0.02424    0.36194    0.36639   -0.07342    9.80260
373435.342700   -0.02790    0.23182    0.25239    0.37691   -0.06350    9.81607
373435.352700    0.13917    0.01833    0.20775    0.35914   -0.05830    9.81069
373435.362700    0.04068    0.13952    0.20168    0.36877   -0.06481    9.81750
373435.372700    0.03615    0.22999    0.19148    0.37085   -0.06929    9.82717
373435.382700   -0.02807   -0.05214    0.21950    0.37328   -0.06594    9.81322
373435.392700   -0.08274    0.07764    0.21784    0.36462   -0.06199    9.80893
373435.402700   -0.15567    0.08371    0.31816    0.37223   -0.05975    9.82780
373435.412700    0.08652    0.12851    0.24849    0.37638   -0.06306    9.81498
373435.422700    0.13201    0.13997    0.29055    0.36052   -0.06719    9.81219
373435.432700   -0.01644    0.23136    0.17166    0.37071   -0.07730    9.80727
373435.442700   -0.07294    0.04566    0.12473    0.37333   -0.06561    9.81571
373435.452700    0.03713    0.14685    0.23319    0.37741   -0.06687    9.82500
373435.462700    0.13161    0.19418    0.32091    0.37716   -0.08229    9.81800
373435.472700    0.10594    0.15269    0.22059    0.37429   -0.06655    9.81038
373435.482700   -0.06285   -0.05718    0.16644    0.36052   -0.05747    9.80354
373435.492700    0.06068    0.15017    0.31026    0.36664   -0.06635    9.81181
373435.502700    0.05260    0.07552    0.13654    0.38046   -0.06023    9.82031
373435.512700    0.04641   -0.04841    0.14141    0.36516   -0.06657    9.82002
373435.522700    0.04171    0.02733    0.23617    0.36394   -0.06005    9.80427
373435.532700    0.00464    0.07351    0.21257    0.37050   -0.06660    9.81537
373435.542700    0.33890    0.08846    0.41505    0.37304   -0.07766    9.82759
373435.552700    0.01186    0.01793    0.34905    0.35804   -0.05976    9.80821
373435.562700   -0.10038    0.08692    0.34601    0.37922   -0.06943    9.81538
373435.572700   -0.03037    0.08113    0.18300    0.36568   -0.06202    9.82962
373435.582700    0.06354    0.10525    0.32836    0.36969   -0.06482    9.80537
373435.592700   -0.09351    0.06629    0.18289    0.36326   -0.06264    9.81000
373435.602700    0.04738   -0.01387    0.24620    0.37692   -0.07436    9.82256
373435.612700    0.26173    0.09952    0.28476    0.36706   -0.06263    9.81570
373435.622700    0.19177    0.04750    0.09397    0.37428   -0.06399    9.80679
373435.632700    0.07861    0.01180    0.27215    0.37712   -0.06861    9.80967
373435.642700    0.17985    0.03930    0.23296    0.36928   -0.08262    9.82300
373435.652700    0.04400   -0.02177    0.29908    0.36329   -0.05981    9.81140
373435.662700    0.05569   -0.01432    0.03209    0.38963   -0.08229    9.81512
373435.672700    0.10204    0.07099    0.53491    0.37960   -0.08089    9.82048
373435.682700    0.10875    0.13591    0.27731    0.37712   -0.07402    9.81757
373435.692700    0.15172    0.06795    0.12250    0.37219   -0.06511    9.81251
373435.702700    0.22288    0.10646    0.43889    0.37332   -0.07330    9.81792
373435.712700    0.13235   -0.13161    0.22712    0.37091   -0.06372    9.80821
373435.722700    0.05816    0.20541   -0.01295    0.37209   -0.06207    9.80927
373435.732700   -0.02693    0.08359    0.13539    0.36845   -0.06900    9.81611
373435.742700    0.13235    0.02160    0.35936    0.37203   -0.07060    9.81148
373435.752700    0.06887    0.08612    0.27107    0.36969   -0.05822    9.81317
373435.762700    0.06394   -0.01570    0.36119    0.35817   -0.07114    9.80330
373435.772700    0.06864    0.14037    0.34790    0.36774   -0.07520    9.80939
373435.782700    0.16822    0.00052    0.36658    0.38210   -0.07083    9.81503
373435.792700    0.10101    0.17023    0.18025    0.37906   -0.06647    9.81786
373435.802700    0.12645    0.06005    0.31788    0.37333   -0.08134    9.81122
373435.812700    0.16536    0.19956    0.33988    0.37252   -0.06328    9.82141
373435.822700    0.15665    0.19790    0.37025    0.37450   -0.06439    9.80715
373435.832700    0.04572   -0.06308    0.41419    0.36994   -0.06872    9.80791
373435.842700    0.06847    0.12731    0.27267    0.36526   -0.06834    9.81647
373435.852700   -0.09947    0.04120    0.20632    0.37057   -0.06116    9.81961
373435.862700   -0.05105    0.03759    0.27261    0.37022   -0.06805    9.80790
373435.872700    0.06108   -0.12095    0.32114    0.38210   -0.07819    9.81724
373435.882700    0.07345   -0.02487    0.29301    0.36475   -0.06659    9.80968
373435.892700   -0.07483    0.11379    0.04108    0.36884   -0.07462    9.81509
373435.902700    0.04314   -0.04819    0.22311    0.37557   -0.07341    9.81114
373435.912700   -0.02320    0.07357    0.11230    0.38298   -0.07345    9.81541
373435.922700    0.27777    0.09614    0.26425    0.37496   -0.07280    9.81043
373435.932700    0.01352    0.19681    0.24276    0.37604   -0.07931    9.81155
373435.942700    0.00275    0.05094    0.35071    0.37613   -0.07614    9.81688
373435.952700    0.15212   -0.16306    0.20684    0.36139   -0.07160    9.82363
373435.962700    0.13407    0.22277    0.36658    0.36107   -0.06589    9.80789
373435.972700    0.00069    0.02074    0.23004    0.37619   -0.07382    9.81542
373435.982700   -0.01031   -0.05260    0.29748    0.36790   -0.06384    9.81642
373435.992700    0.05220    0.10262    0.36234    0.36013   -0.06138    9.81143
373436.002700    0.06452    0.18054    0.29404    0.37085   -0.07338    9.81437
373436.012700    0.10176    0.33827    0.36589    0.37033   -0.06329    9.82178
373436.022700    0.12708   -0.04463    0.24557    0.36711   -0.06242    9.81070
373436.032700    0.06073    0.00344    0.25336    0.37090   -0.06319    9.80821
373436.042700   -0.14868    0.17945    0.30149    0.36735   -0.07842    9.81406
373436.052700   -0.04326    0.03443    0.20277    0.36826   -0.07315    9.81329
373436.062700    0.05392   -0.17229    0.42450    0.36617   -0.06214    9.81142
373436.072700    0.07632    0.05191    0.23978    0.37959   -0.07791    9.81367
373436.082700   -0.02143    0.10422    0.26717    0.37122   -0.07038    9.81862
373436.092700    0.30487    0.13184    0.20506    0.37673   -0.07390    9.81329
373436.102700   -0.04853    0.00619    0.15464    0.36618   -0.07016    9.81469
373436.112700   -0.01140    0.06990    0.22082    0.37706   -0.06655    9.81501
373436.122700   -0.05162    0.06875    0.23056    0.36850   -0.07741    9.81262
373436.132700   -0.13482    0.24230    0.29782    0.37792   -0.06980    9.80684
373436.142700   -0.04051    0.21079    0.12519    0.37223   -0.07942    9.81263
373436.152700    0.05638    0.03186    0.37443    0.37161   -0.06175    9.81354
373436.162700    0.15458    0.10663    0.26471    0.36536   -0.06056    9.81783
373436.172700    0.13797    0.03644    0.25267    0.37679   -0.06912    9.82144
373436.182700   -0.03220    0.02269    0.31593    0.36194   -0.06971    9.81898
373436.192700    0.01071    0.12737    0.34784    0.36600   -0.07008    9.80899
373436.202700    0.00504    0.06784    0.30676    0.37127   -0.07037    9.82147
373436.212700    0.26803    0.00126    0.34721    0.36889   -0.06769    9.82003
373436.222700    0.13963    0.10176    0.37775    0.37266   -0.06565    9.82107
373436.232700    0.16444    0.02080    0.03667    0.36743   -0.06405    9.81429
373436.242700    0.16266   -0.05277    0.17498    0.36615   -0.06823    9.81753
373436.252700    0.04429    0.10772    0.15613    0.37682   -0.06854    9.82074
373436.262700    0.20500    0.11482    0.20936    0.37473   -0.07160    9.81291
373436.272700   -0.07437    0.00252    0.14926    0.37783   -0.06907    9.80468
373436.282700    0.03484   -0.10388    0.23050    0.38214   -0.07746    9.82543
373436.292700    0.19011    0.15069    0.37322    0.37358   -0.06805    9.81859
373436.302700    0.00630    0.12221    0.08531    0.37872   -0.06827    9.80860
373436.312700    0.01352    0.06715    0.19016    0.37845   -0.07203    9.81256
373436.322700    0.18071    0.07311    0.31077    0.37022   -0.07434    9.81116
373436.332700   -0.13980    0.10531    0.34400    0.38186   -0.06598    9.80929
373436.342700    0.17298    0.03965    0.30544    0.37598   -0.06779    9.81217
373436.352700    0.26963    0.40096    0.26133    0.37240   -0.07386    9.82222
373436.362700    0.11648    0.16094    0.26368    0.36049   -0.07233    9.82186
373436.372700    0.31553    0.06354    0.32550    0.36575   -0.07149    9.81507
373436.382700    0.20472    0.16134    0.19658    0.37368   -0.07535    9.81437
373436.392700   -0.04492    0.27513    0.09523    0.36835   -0.07181    9.81543
373436.402700   -0.11683   -0.02017    0.17068    0.37131   -0.06491    9.81179
373436.412700    0.06045    0.05844    0.30332    0.36482   -0.07521    9.81759
373436.422700    0.04372   -0.02538    0.13172    0.36856   -0.07506    9.81973
373436.432700    0.06245    0.10210    0.24861    0.37592   -0.06309    9.80536
373436.442700    0.11092    0.10852    0.35162    0.36326   -0.05796    9.81638
373436.452700    0.16014   -0.02504    0.30751    0.37093   -0.06533    9.82107
373436.462700    0.08039   -0.02280    0.18002    0.37390   -0.06031    9.81354
373436.472700    0.02762    0.10984    0.24482    0.36766   -0.06601    9.80325
373436.482700    0.07036    0.20288    0.43997    0.38265   -0.07953    9.81939
373436.492700    0.01083    0.06079    0.16902    0.37711   -0.06578    9.82250
373436.502700    0.16914    0.06371    0.26402    0.36533   -0.06095    9.81034
373436.512700   -0.05323    0.18839    0.28442    0.37982   -0.07486    9.81579
373436.522700   -0.03867    0.01094    0.19778    0.37103   -0.07486    9.82436
373436.532700    0.06744    0.11373    0.11327    0.37444   -0.07990    9.82118
373436.542700    0.14920   -0.05306    0.14897    0.37205   -0.07298    9.82042
373436.552700    0.06429    0.25846    0.14679    0.37554   -0.06785    9.81788
373436.562700   -0.00195    0.06297    0.11150    0.36431   -0.07223    9.80937
373436.572700    0.12479    0.00705    0.17137    0.37230   -0.06541    9.80965
373436.582700    0.23789    0.06623    0.28791    0.38607   -0.07111    9.81361
373436.592700   -0.01031    0.26213    0.25330    0.37309   -0.07176    9.82255
373436.602700    0.12118    0.11396    0.51136    0.36913   -0.05923    9.82602
373436.612700   -0.08634   -0.05982    0.40399    0.36230   -0.06846    9.80649
373436.622700   -0.03438    0.08921    0.34440    0.37159   -0.06698    9.81609
373436.632700    0.11390    0.02670    0.17194    0.37543   -0.06960    9.81718
373436.642700   -0.17298    0.18249    0.22179    0.36622   -0.06201    9.80643
373436.652700   -0.03174    0.11310    0.12571    0.36840   -0.06285    9.81927
373436.662700    0.02452   -0.01432    0.34847    0.36408   -0.06726    9.82146
373436.672700    0.09110    0.19750    0.26264    0.37733   -0.05498    9.82704
373436.682700    0.15733   -0.04463    0.19217    0.37376   -0.06814    9.81324
373436.692700    0.20827   -0.00550    0.34263    0.37203   -0.06702    9.82108
373436.702700    0.10640   -0.02137    0.23778    0.37101   -0.07129    9.81683
373436.712700    0.08806    0.11728    0.18782    0.36780   -0.07757    9.80477
373436.722700    0.10525    0.16805    0.39992    0.37288   -0.07068    9.82004
373436.732700   -0.07431    0.14954    0.28235    0.37290   -0.06290    9.81285
373436.742700    0.08485    0.04372    0.35747    0.37299   -0.06447    9.81250
373436.752700    0.14519    0.13230    0.22907    0.36714   -0.07551    9.81902
373436.762700    0.15338    0.02177    0.31919    0.37120   -0.06709    9.81859
373436.772700   -0.12737   -0.07363    0.37632    0.37238   -0.06503    9.80287
373436.782700    0.04183   -0.03638    0.37471    0.37270   -0.06933    9.81147
373436.792700   -0.05031    0.05306    0.31037    0.37534   -0.06421    9.81250
373436.802700    0.01845    0.13688    0.29146    0.36223   -0.05356    9.81456
373436.812700    0.11992   -0.02378    0.29066    0.37502   -0.07342    9.80829
373436.822700   -0.07013    0.01484    0.12061    0.37864   -0.07895    9.81725
373436.832700   -0.07838    0.09586    0.30395    0.36703   -0.07630    9.81832
373436.842700    0.04309    0.23606    0.18529    0.37377   -0.06764    9.81503
373436.852700    0.20432    0.07638    0.39242    0.37442   -0.06912    9.81753
373436.862700    0.12926    0.09225    0.46679    0.37745   -0.06707    9.81965
373436.872700    0.18254   -0.06314    0.18604    0.36227   -0.06479    9.80753
373436.882700   -0.00407    0.06205    0.24970    0.37298   -0.07561    9.81545
373436.892700    0.20220   -0.02790    0.34819    0.36950   -0.06229    9.81320
373436.902700    0.04314    0.03570    0.13866    0.37052   -0.06136    9.81961
373436.912700    0.10176    0.28602    0.19876    0.36958   -0.06412    9.80466
373436.922700   -0.06406    0.10835    0.28161    0.37158   -0.07526    9.80974
373436.932700    0.20529   -0.07214    0.29083    0.36899   -0.07327    9.81615
373436.942700    0.14227    0.00275    0.02057    0.36781   -0.06612    9.81537
373436.952700   -0.07294   -0.10141    0.31730    0.37970   -0.06910    9.81360
373436.962700    0.09391    0.07254    0.20942    0.36442   -0.08124    9.82442
373436.972700    0.04526    0.02813    0.23829    0.36603   -0.06111    9.81070
373436.982700    0.04200    0.14290    0.34882    0.36449   -0.05942    9.80570
